"acc","accept_status","accuracy","average_response_time","avg_rt","background","canvas_backend","checkbox_status","correct","correct_consent_sketchpad","correct_instruction_sketchpad","correct_new_keyboard_response","correct_response","count_age_form","count_checkbox_security_form","count_consent_sketchpad","count_country_logger","count_eurozone_form","count_eurozone_logger","count_experiment","count_fixation_dots","count_getting_started","count_goodbye_sketchpad","count_images_sketchpad","count_information_display_sketchpad","count_instruction_sketchpad","count_new_1_form_base","count_new_1_form_text_input","count_new_1_sketchpad","count_new_2_logger","count_new_4_form_multiple_choice","count_new_form_base","count_new_form_consent","count_new_form_multiple_choice","count_new_form_text_display","count_new_form_text_input","count_new_inline_script","count_new_keyboard_response","count_new_loop","count_new_sequence","count_occupation_form","count_occupation_logger","count_open_security_input_form","count_personal_data_logger","count_response_logger","count_schooling_level_form","count_schooling_logger","count_security_feature_logger","count_welcome","datetime","denomination","description","disable_garbage_collection","experiment_file","experiment_path","font_bold","font_family","font_italic","font_size","font_underline","foreground","form_clicks","form_response","fullscreen","height","logfile","note_type","opensesame_codename","opensesame_version","reason","response","response_consent_sketchpad","response_goodbye_sketchpad","response_information_display_sketchpad","response_instruction_sketchpad","response_new_1_sketchpad","response_new_keyboard_response","response_time","response_time_consent_sketchpad","response_time_goodbye_sketchpad","response_time_information_display_sketchpad","response_time_instruction_sketchpad","response_time_new_1_sketchpad","response_time_new_keyboard_response","response_time_welcome","response_welcome","round_decimals","show","sound_buf_size","sound_channels","sound_freq","sound_sample_size","start","subject_nr","subject_parity","time_age_form","time_checkbox_security_form","time_consent_sketchpad","time_country_logger","time_eurozone_form","time_eurozone_logger","time_experiment","time_fixation_dots","time_getting_started","time_goodbye_sketchpad","time_images_sketchpad","time_information_display_sketchpad","time_instruction_sketchpad","time_new_1_form_base","time_new_1_form_text_input","time_new_1_sketchpad","time_new_2_logger","time_new_4_form_multiple_choice","time_new_form_base","time_new_form_consent","time_new_form_multiple_choice","time_new_form_text_display","time_new_form_text_input","time_new_inline_script","time_new_keyboard_response","time_new_loop","time_new_sequence","time_occupation_form","time_occupation_logger","time_open_security_input_form","time_personal_data_logger","time_response_logger","time_schooling_level_form","time_schooling_logger","time_security_feature_logger","time_welcome","title","total_correct","total_response_time","total_responses","width"
"undefined","NA","undefined","undefined","undefined","#3d3846","psycho","NA","undefined","undefined","undefined","NA","NA","0","0","0","0","0","0","0","NA","NA","0","NA","0","0","NA","NA","NA","0","NA","NA","NA","NA","NA","0","NA","NA","0","NA","0","0","0","0","NA","0","0","0","NA","Sun Oct 15 17:00:06 2023","NA","The main experiment item","yes","CogPsy_Assignment_With_Instruction.osexp","/home/matt/Documents/VU/MS/Cognitive_Psychology/project","no","mono","no","18","no","white","no","Yes","yes","768","/home/matt/Documents/VU/MS/Cognitive_Psychology/project/subject-0.csv","NA","Melodramatic Milgram","4.0.6","NA","Yes","down","NA","NA","right","NA","NA","3940.9079551696777","3940.9079551696777","NA","NA","34299.49593544006","NA","NA","NA","NA","2","NA","1024","2","48000","-16","experiment","0","even","NA","NA","38289.80302810669","NA","NA","48291.27097129822","3909.5869064331055","NA","NA","NA","NA","NA","3963.2010459899902","NA","NA","NA","NA","NA","NA","NA","NA","NA","NA","NA","NA","NA","NA","NA","NA","NA","NA","NA","NA","NA","NA","NA","New experiment","0","0","0","1024"
"undefined","NA","undefined","undefined","undefined","#3d3846","psycho","NA","undefined","undefined","undefined","NA","NA","0","0","0","0","0","0","0","NA","NA","0","NA","0","0","NA","NA","NA","0","NA","NA","NA","NA","NA","0","NA","NA","0","NA","0","0","0","0","NA","0","0","0","NA","Sun Oct 15 17:00:06 2023","NA","The main experiment item","yes","CogPsy_Assignment_With_Instruction.osexp","/home/matt/Documents/VU/MS/Cognitive_Psychology/project","no","mono","no","18","no","white","no","High School","yes","768","/home/matt/Documents/VU/MS/Cognitive_Psychology/project/subject-0.csv","NA","Melodramatic Milgram","4.0.6","NA","High School","down","NA","NA","right","NA","NA","3940.9079551696777","3940.9079551696777","NA","NA","34299.49593544006","NA","NA","NA","NA","2","NA","1024","2","48000","-16","experiment","0","even","NA","NA","38289.80302810669","NA","NA","48291.27097129822","3909.5869064331055","NA","NA","NA","NA","NA","3963.2010459899902","NA","NA","NA","NA","NA","NA","NA","NA","NA","NA","NA","NA","NA","NA","NA","NA","NA","NA","NA","NA","56292.136907577515","NA","NA","New experiment","0","0","0","1024"
"undefined","NA","undefined","undefined","undefined","#3d3846","psycho","NA","undefined","undefined","undefined","NA","NA","0","0","0","0","0","0","0","NA","NA","0","NA","0","0","NA","NA","NA","0","NA","NA","NA","NA","NA","0","NA","NA","0","NA","0","0","0","0","NA","0","0","0","NA","Sun Oct 15 17:00:06 2023","NA","The main experiment item","yes","CogPsy_Assignment_With_Instruction.osexp","/home/matt/Documents/VU/MS/Cognitive_Psychology/project","no","mono","no","18","no","white","no","26","yes","768","/home/matt/Documents/VU/MS/Cognitive_Psychology/project/subject-0.csv","NA","Melodramatic Milgram","4.0.6","NA","26","down","NA","NA","right","NA","NA","3940.9079551696777","3940.9079551696777","NA","NA","34299.49593544006","NA","NA","NA","NA","2","NA","1024","2","48000","-16","experiment","0","even","56303.66802215576","NA","38289.80302810669","NA","NA","48291.27097129822","3909.5869064331055","NA","NA","NA","NA","NA","3963.2010459899902","NA","NA","NA","NA","NA","NA","NA","NA","NA","NA","NA","NA","NA","NA","NA","NA","NA","93425.90808868408","NA","NA","56292.136907577515","NA","NA","New experiment","0","0","0","1024"
"undefined","NA","undefined","undefined","undefined","#3d3846","psycho","NA","undefined","undefined","undefined","NA","NA","0","0","0","0","0","0","0","NA","NA","0","NA","0","0","NA","NA","NA","0","NA","NA","NA","NA","NA","0","NA","NA","0","NA","0","0","0","0","NA","0","0","0","NA","Sun Oct 15 17:00:06 2023","NA","The main experiment item","yes","CogPsy_Assignment_With_Instruction.osexp","/home/matt/Documents/VU/MS/Cognitive_Psychology/project","no","mono","no","18","no","white","no","polen","yes","768","/home/matt/Documents/VU/MS/Cognitive_Psychology/project/subject-0.csv","NA","Melodramatic Milgram","4.0.6","NA","polen","down","NA","NA","right","NA","NA","3940.9079551696777","3940.9079551696777","NA","NA","34299.49593544006","NA","NA","NA","NA","2","NA","1024","2","48000","-16","experiment","0","even","56303.66802215576","NA","38289.80302810669","106928.45296859741","NA","48291.27097129822","3909.5869064331055","NA","NA","NA","NA","NA","3963.2010459899902","NA","NA","NA","NA","NA","NA","NA","NA","NA","93434.71193313599","NA","NA","NA","NA","NA","NA","NA","93425.90808868408","NA","NA","56292.136907577515","NA","NA","New experiment","0","0","0","1024"
"undefined","NA","undefined","undefined","undefined","#3d3846","psycho","NA","undefined","undefined","undefined","NA","NA","0","0","0","0","0","0","0","NA","NA","0","NA","0","0","NA","NA","NA","0","NA","NA","NA","NA","NA","0","NA","NA","0","NA","0","0","0","0","NA","0","0","0","NA","Sun Oct 15 17:00:06 2023","NA","The main experiment item","yes","CogPsy_Assignment_With_Instruction.osexp","/home/matt/Documents/VU/MS/Cognitive_Psychology/project","no","mono","no","18","no","white","no","Professional and Technical Occupations","yes","768","/home/matt/Documents/VU/MS/Cognitive_Psychology/project/subject-0.csv","NA","Melodramatic Milgram","4.0.6","NA","Professional and Technical Occupations","down","NA","NA","right","NA","NA","3940.9079551696777","3940.9079551696777","NA","NA","34299.49593544006","NA","NA","NA","NA","2","NA","1024","2","48000","-16","experiment","0","even","56303.66802215576","NA","38289.80302810669","106928.45296859741","NA","48291.27097129822","3909.5869064331055","NA","NA","NA","NA","NA","3963.2010459899902","NA","NA","NA","NA","NA","NA","NA","NA","NA","93434.71193313599","NA","NA","NA","NA","NA","134942.43097305298","NA","93425.90808868408","NA","NA","56292.136907577515","NA","NA","New experiment","0","0","0","1024"
"100","NA","100","5673","5673","#3d3846","psycho","NA","1","undefined","undefined","1","left","0","0","0","0","0","0","0","0","NA","0","0","0","0","NA","NA","NA","0","NA","NA","NA","NA","NA","0","NA","0","0","0","0","0","0","0","0","0","0","0","NA","Sun Oct 15 17:00:06 2023","50","The main experiment item","yes","CogPsy_Assignment_With_Instruction.osexp","/home/matt/Documents/VU/MS/Cognitive_Psychology/project","no","mono","no","18","no","white","no","Professional and Technical Occupations","yes","768","/home/matt/Documents/VU/MS/Cognitive_Psychology/project/subject-0.csv","fake","Melodramatic Milgram","4.0.6","PurpleDenomination3","left","down","NA","right","right","NA","left","5673.156976699829","3940.9079551696777","NA","119473.58107566833","34299.49593544006","NA","5673.156976699829","NA","NA","2","fake_2_50","1024","2","48000","-16","experiment","0","even","56303.66802215576","NA","38289.80302810669","106928.45296859741","NA","48291.27097129822","3909.5869064331055","254535.76493263245","NA","NA","255052.29210853577","134965.33298492432","3963.2010459899902","NA","NA","NA","NA","NA","NA","NA","NA","NA","93434.71193313599","NA","255053.69997024536","254439.17393684387","254517.81511306763","NA","134942.43097305298","NA","93425.90808868408","260727.25009918213","NA","56292.136907577515","NA","NA","New experiment","1","5673.156976699829","1","1024"
"50","NA","50","11921","11921","#3d3846","psycho","NA","0","undefined","undefined","0","left","0","0","0","0","0","0","0","1","NA","0","1","0","0","NA","NA","NA","0","NA","NA","NA","NA","NA","0","NA","1","0","1","0","0","0","0","1","0","0","0","NA","Sun Oct 15 17:00:06 2023","20","The main experiment item","yes","CogPsy_Assignment_With_Instruction.osexp","/home/matt/Documents/VU/MS/Cognitive_Psychology/project","no","mono","no","18","no","white","no","Professional and Technical Occupations","yes","768","/home/matt/Documents/VU/MS/Cognitive_Psychology/project/subject-0.csv","fake","Melodramatic Milgram","4.0.6","BadInk2","right","down","NA","right","right","NA","right","18170.337915420532","3940.9079551696777","NA","119473.58107566833","34299.49593544006","NA","18170.337915420532","NA","NA","2","fake_20","1024","2","48000","-16","experiment","0","even","56303.66802215576","NA","38289.80302810669","106928.45296859741","NA","48291.27097129822","3909.5869064331055","260902.53400802612","NA","NA","261419.36993598938","134965.33298492432","3963.2010459899902","NA","NA","NA","NA","NA","NA","NA","NA","NA","93434.71193313599","NA","261420.58610916138","254439.17393684387","260883.58306884766","NA","134942.43097305298","NA","93425.90808868408","279591.2079811096","NA","56292.136907577515","NA","NA","New experiment","1","23843.49489212036","2","1024"
"66","NA","66","10441","10441","#3d3846","psycho","NA","1","undefined","undefined","1","right","0","0","0","0","0","0","0","2","NA","0","2","0","0","NA","NA","NA","0","NA","NA","NA","NA","NA","0","NA","2","0","2","0","0","0","0","2","0","0","0","NA","Sun Oct 15 17:00:06 2023","50","The main experiment item","yes","CogPsy_Assignment_With_Instruction.osexp","/home/matt/Documents/VU/MS/Cognitive_Psychology/project","no","mono","no","18","no","white","no","Professional and Technical Occupations","yes","768","/home/matt/Documents/VU/MS/Cognitive_Psychology/project/subject-0.csv","real","Melodramatic Milgram","4.0.6","photo","right","down","NA","right","right","NA","right","7479.885101318359","3940.9079551696777","NA","119473.58107566833","34299.49593544006","NA","7479.885101318359","NA","NA","2","real_50","1024","2","48000","-16","experiment","0","even","56303.66802215576","NA","38289.80302810669","106928.45296859741","NA","48291.27097129822","3909.5869064331055","279737.2100353241","NA","NA","280253.98802757263","134965.33298492432","3963.2010459899902","NA","NA","NA","NA","NA","NA","NA","NA","NA","93434.71193313599","NA","280255.0458908081","254439.17393684387","279727.5469303131","NA","134942.43097305298","NA","93425.90808868408","287735.2180480957","NA","56292.136907577515","NA","NA","New experiment","2","31323.37999343872","3","1024"
"75","NA","75","9427","9427","#3d3846","psycho","NA","1","undefined","undefined","1","left","0","0","0","0","0","0","0","3","NA","0","3","0","0","NA","NA","NA","0","NA","NA","NA","NA","NA","0","NA","3","0","3","0","0","0","0","3","0","0","0","NA","Sun Oct 15 17:00:06 2023","20","The main experiment item","yes","CogPsy_Assignment_With_Instruction.osexp","/home/matt/Documents/VU/MS/Cognitive_Psychology/project","no","mono","no","18","no","white","no","Professional and Technical Occupations","yes","768","/home/matt/Documents/VU/MS/Cognitive_Psychology/project/subject-0.csv","fake","Melodramatic Milgram","4.0.6","PurpleDenomination","left","down","NA","right","right","NA","left","6385.43701171875","3940.9079551696777","NA","119473.58107566833","34299.49593544006","NA","6385.43701171875","NA","NA","2","fake_20","1024","2","48000","-16","experiment","0","even","56303.66802215576","NA","38289.80302810669","106928.45296859741","NA","48291.27097129822","3909.5869064331055","287887.80403137207","NA","NA","288404.2820930481","134965.33298492432","3963.2010459899902","NA","NA","NA","NA","NA","NA","NA","NA","NA","93434.71193313599","NA","288405.49302101135","254439.17393684387","287871.1950778961","NA","134942.43097305298","NA","93425.90808868408","294791.20993614197","NA","56292.136907577515","NA","NA","New experiment","3","37708.81700515747","4","1024"
"80","NA","80","8125","8125","#3d3846","psycho","NA","1","undefined","undefined","1","right","0","0","0","0","0","0","0","4","NA","0","4","0","0","NA","NA","NA","0","NA","NA","NA","NA","NA","0","NA","4","0","4","0","0","0","0","4","0","0","0","NA","Sun Oct 15 17:00:06 2023","50","The main experiment item","yes","CogPsy_Assignment_With_Instruction.osexp","/home/matt/Documents/VU/MS/Cognitive_Psychology/project","no","mono","no","18","no","white","no","Professional and Technical Occupations","yes","768","/home/matt/Documents/VU/MS/Cognitive_Psychology/project/subject-0.csv","real","Melodramatic Milgram","4.0.6","photo_2","right","down","NA","right","right","NA","right","2919.4889068603516","3940.9079551696777","NA","119473.58107566833","34299.49593544006","NA","2919.4889068603516","NA","NA","2","real_50","1024","2","48000","-16","experiment","0","even","56303.66802215576","NA","38289.80302810669","106928.45296859741","NA","48291.27097129822","3909.5869064331055","294938.24911117554","NA","NA","295454.5929431915","134965.33298492432","3963.2010459899902","NA","NA","NA","NA","NA","NA","NA","NA","NA","93434.71193313599","NA","295455.42311668396","254439.17393684387","294922.88398742676","NA","134942.43097305298","NA","93425.90808868408","298375.1850128174","NA","56292.136907577515","NA","NA","New experiment","4","40628.30591201782","5","1024"
"83","NA","83","7255","7255","#3d3846","psycho","NA","1","undefined","undefined","1","left","0","0","0","0","0","0","0","5","NA","0","5","0","0","NA","NA","NA","0","NA","NA","NA","NA","NA","0","NA","5","0","5","0","0","0","0","5","0","0","0","NA","Sun Oct 15 17:00:06 2023","50","The main experiment item","yes","CogPsy_Assignment_With_Instruction.osexp","/home/matt/Documents/VU/MS/Cognitive_Psychology/project","no","mono","no","18","no","white","no","Professional and Technical Occupations","yes","768","/home/matt/Documents/VU/MS/Cognitive_Psychology/project/subject-0.csv","fake","Melodramatic Milgram","4.0.6","PurpleDenomination2","left","down","NA","right","right","NA","left","2903.3398628234863","3940.9079551696777","NA","119473.58107566833","34299.49593544006","NA","2903.3398628234863","NA","NA","2","fake_2_50","1024","2","48000","-16","experiment","0","even","56303.66802215576","NA","38289.80302810669","106928.45296859741","NA","48291.27097129822","3909.5869064331055","298521.31605148315","NA","NA","299038.36011886597","134965.33298492432","3963.2010459899902","NA","NA","NA","NA","NA","NA","NA","NA","NA","93434.71193313599","NA","299039.6161079407","254439.17393684387","298502.54702568054","NA","134942.43097305298","NA","93425.90808868408","301943.2179927826","NA","56292.136907577515","NA","NA","New experiment","5","43531.64577484131","6","1024"
"85","NA","85","6848","6848","#3d3846","psycho","NA","1","undefined","undefined","1","right","0","0","0","0","0","0","0","6","NA","0","6","0","0","NA","NA","NA","0","NA","NA","NA","NA","NA","0","NA","6","0","6","0","0","0","0","6","0","0","0","NA","Sun Oct 15 17:00:06 2023","20","The main experiment item","yes","CogPsy_Assignment_With_Instruction.osexp","/home/matt/Documents/VU/MS/Cognitive_Psychology/project","no","mono","no","18","no","white","no","Professional and Technical Occupations","yes","768","/home/matt/Documents/VU/MS/Cognitive_Psychology/project/subject-0.csv","real","Melodramatic Milgram","4.0.6","photo","right","down","NA","right","right","NA","right","4407.963991165161","3940.9079551696777","NA","119473.58107566833","34299.49593544006","NA","4407.963991165161","NA","NA","2","real_20","1024","2","48000","-16","experiment","0","even","56303.66802215576","NA","38289.80302810669","106928.45296859741","NA","48291.27097129822","3909.5869064331055","302121.5600967407","NA","NA","302638.29803466797","134965.33298492432","3963.2010459899902","NA","NA","NA","NA","NA","NA","NA","NA","NA","93434.71193313599","NA","302639.0058994293","254439.17393684387","302103.46388816833","NA","134942.43097305298","NA","93425.90808868408","307047.2540855408","NA","56292.136907577515","NA","NA","New experiment","6","47939.60976600647","7","1024"
"87","NA","87","6456","6456","#3d3846","psycho","NA","1","undefined","undefined","1","right","0","0","0","0","0","0","0","7","NA","0","7","0","0","NA","NA","NA","0","NA","NA","NA","NA","NA","0","NA","7","0","7","0","0","0","0","7","0","0","0","NA","Sun Oct 15 17:00:06 2023","50","The main experiment item","yes","CogPsy_Assignment_With_Instruction.osexp","/home/matt/Documents/VU/MS/Cognitive_Psychology/project","no","mono","no","18","no","white","no","Professional and Technical Occupations","yes","768","/home/matt/Documents/VU/MS/Cognitive_Psychology/project/subject-0.csv","real","Melodramatic Milgram","4.0.6","genuine","right","down","NA","right","right","NA","right","3708.6358070373535","3940.9079551696777","NA","119473.58107566833","34299.49593544006","NA","3708.6358070373535","NA","NA","2","real_50","1024","2","48000","-16","experiment","0","even","56303.66802215576","NA","38289.80302810669","106928.45296859741","NA","48291.27097129822","3909.5869064331055","307171.95200920105","NA","NA","307688.8608932495","134965.33298492432","3963.2010459899902","NA","NA","NA","NA","NA","NA","NA","NA","NA","93434.71193313599","NA","307690.3131008148","254439.17393684387","307160.2430343628","NA","134942.43097305298","NA","93425.90808868408","311399.2450237274","NA","56292.136907577515","NA","NA","New experiment","7","51648.24557304382","8","1024"
"88","NA","88","6438","6438","#3d3846","psycho","NA","1","undefined","undefined","1","right","0","0","0","0","0","0","0","8","NA","0","8","0","0","NA","NA","NA","0","NA","NA","NA","NA","NA","0","NA","8","0","8","0","0","0","0","8","0","0","0","NA","Sun Oct 15 17:00:06 2023","20","The main experiment item","yes","CogPsy_Assignment_With_Instruction.osexp","/home/matt/Documents/VU/MS/Cognitive_Psychology/project","no","mono","no","18","no","white","no","Professional and Technical Occupations","yes","768","/home/matt/Documents/VU/MS/Cognitive_Psychology/project/subject-0.csv","real","Melodramatic Milgram","4.0.6","genuine","right","down","NA","right","right","NA","right","6302.170991897583","3940.9079551696777","NA","119473.58107566833","34299.49593544006","NA","6302.170991897583","NA","NA","2","real_20","1024","2","48000","-16","experiment","0","even","56303.66802215576","NA","38289.80302810669","106928.45296859741","NA","48291.27097129822","3909.5869064331055","311522.057056427","NA","NA","312039.1080379486","134965.33298492432","3963.2010459899902","NA","NA","NA","NA","NA","NA","NA","NA","NA","93434.71193313599","NA","312040.79508781433","254439.17393684387","311512.1839046478","NA","134942.43097305298","NA","93425.90808868408","318343.24502944946","NA","56292.136907577515","NA","NA","New experiment","8","57950.416564941406","9","1024"
"90","NA","90","5931","5931","#3d3846","psycho","NA","1","undefined","undefined","1","left","0","0","0","0","0","0","0","9","NA","0","9","0","0","NA","NA","NA","0","NA","NA","NA","NA","NA","0","NA","9","0","9","0","0","0","0","9","0","0","0","NA","Sun Oct 15 17:00:06 2023","20","The main experiment item","yes","CogPsy_Assignment_With_Instruction.osexp","/home/matt/Documents/VU/MS/Cognitive_Psychology/project","no","mono","no","18","no","white","no","Professional and Technical Occupations","yes","768","/home/matt/Documents/VU/MS/Cognitive_Psychology/project/subject-0.csv","fake","Melodramatic Milgram","4.0.6","BrownDenomination","left","down","NA","right","right","NA","left","1367.866039276123","3940.9079551696777","NA","119473.58107566833","34299.49593544006","NA","1367.866039276123","NA","NA","2","fake_20","1024","2","48000","-16","experiment","0","even","56303.66802215576","NA","38289.80302810669","106928.45296859741","NA","48291.27097129822","3909.5869064331055","318489.51292037964","NA","NA","319006.02412223816","134965.33298492432","3963.2010459899902","NA","NA","NA","NA","NA","NA","NA","NA","NA","93434.71193313599","NA","319007.0769786835","254439.17393684387","318478.38497161865","NA","134942.43097305298","NA","93425.90808868408","320375.2100467682","NA","56292.136907577515","NA","NA","New experiment","9","59318.28260421753","10","1024"
"81","NA","81","5703","5703","#3d3846","psycho","NA","0","undefined","undefined","0","left","0","0","0","0","0","0","0","10","NA","0","10","0","0","NA","NA","NA","0","NA","NA","NA","NA","NA","0","NA","10","0","10","0","0","0","0","10","0","0","0","NA","Sun Oct 15 17:00:06 2023","50","The main experiment item","yes","CogPsy_Assignment_With_Instruction.osexp","/home/matt/Documents/VU/MS/Cognitive_Psychology/project","no","mono","no","18","no","white","no","Professional and Technical Occupations","yes","768","/home/matt/Documents/VU/MS/Cognitive_Psychology/project/subject-0.csv","fake","Melodramatic Milgram","4.0.6","silver_strip","right","down","NA","right","right","NA","right","3415.299892425537","3940.9079551696777","NA","119473.58107566833","34299.49593544006","NA","3415.299892425537","NA","NA","2","fake_2_50","1024","2","48000","-16","experiment","0","even","56303.66802215576","NA","38289.80302810669","106928.45296859741","NA","48291.27097129822","3909.5869064331055","320506.2720775604","NA","NA","321022.9001045227","134965.33298492432","3963.2010459899902","NA","NA","NA","NA","NA","NA","NA","NA","NA","93434.71193313599","NA","321023.65708351135","254439.17393684387","320488.0909919739","NA","134942.43097305298","NA","93425.90808868408","324439.2421245575","NA","56292.136907577515","NA","NA","New experiment","9","62733.58249664307","11","1024"
"75","NA","75","5364","5364","#3d3846","psycho","NA","0","undefined","undefined","0","left","0","0","0","0","0","0","0","11","NA","0","11","0","0","NA","NA","NA","0","NA","NA","NA","NA","NA","0","NA","11","0","11","0","0","0","0","11","0","0","0","NA","Sun Oct 15 17:00:06 2023","50","The main experiment item","yes","CogPsy_Assignment_With_Instruction.osexp","/home/matt/Documents/VU/MS/Cognitive_Psychology/project","no","mono","no","18","no","white","no","Professional and Technical Occupations","yes","768","/home/matt/Documents/VU/MS/Cognitive_Psychology/project/subject-0.csv","fake","Melodramatic Milgram","4.0.6","silver_strip","right","down","NA","right","right","NA","right","1637.4990940093994","3940.9079551696777","NA","119473.58107566833","34299.49593544006","NA","1637.4990940093994","NA","NA","2","fake_2_50","1024","2","48000","-16","experiment","0","even","56303.66802215576","NA","38289.80302810669","106928.45296859741","NA","48291.27097129822","3909.5869064331055","324558.00199508667","NA","NA","325073.0650424957","134965.33298492432","3963.2010459899902","NA","NA","NA","NA","NA","NA","NA","NA","NA","93434.71193313599","NA","325073.43196868896","254439.17393684387","324552.44994163513","NA","134942.43097305298","NA","93425.90808868408","326711.2190723419","NA","56292.136907577515","NA","NA","New experiment","9","64371.081590652466","12","1024"
"69","NA","69","5063","5063","#3d3846","psycho","NA","0","undefined","undefined","0","left","0","0","0","0","0","0","0","12","NA","0","12","0","0","NA","NA","NA","0","NA","NA","NA","NA","NA","0","NA","12","0","12","0","0","0","0","12","0","0","0","NA","Sun Oct 15 17:00:06 2023","20","The main experiment item","yes","CogPsy_Assignment_With_Instruction.osexp","/home/matt/Documents/VU/MS/Cognitive_Psychology/project","no","mono","no","18","no","white","no","Professional and Technical Occupations","yes","768","/home/matt/Documents/VU/MS/Cognitive_Psychology/project/subject-0.csv","fake","Melodramatic Milgram","4.0.6","BadInk","right","down","NA","right","right","NA","right","1448.7099647521973","3940.9079551696777","NA","119473.58107566833","34299.49593544006","NA","1448.7099647521973","NA","NA","2","fake_20","1024","2","48000","-16","experiment","0","even","56303.66802215576","NA","38289.80302810669","106928.45296859741","NA","48291.27097129822","3909.5869064331055","326856.5011024475","NA","NA","327373.162984848","134965.33298492432","3963.2010459899902","NA","NA","NA","NA","NA","NA","NA","NA","NA","93434.71193313599","NA","327374.26805496216","254439.17393684387","326849.9319553375","NA","134942.43097305298","NA","93425.90808868408","328823.28510284424","NA","56292.136907577515","NA","NA","New experiment","9","65819.79155540466","13","1024"
"64","NA","64","4754","4754","#3d3846","psycho","NA","0","undefined","undefined","0","left","0","0","0","0","0","0","0","13","NA","0","13","0","0","NA","NA","NA","0","NA","NA","NA","NA","NA","0","NA","13","0","13","0","0","0","0","13","0","0","0","NA","Sun Oct 15 17:00:06 2023","50","The main experiment item","yes","CogPsy_Assignment_With_Instruction.osexp","/home/matt/Documents/VU/MS/Cognitive_Psychology/project","no","mono","no","18","no","white","no","Professional and Technical Occupations","yes","768","/home/matt/Documents/VU/MS/Cognitive_Psychology/project/subject-0.csv","fake","Melodramatic Milgram","4.0.6","BadInk","right","down","NA","right","right","NA","right","739.2759323120117","3940.9079551696777","NA","119473.58107566833","34299.49593544006","NA","739.2759323120117","NA","NA","2","fake_2_50","1024","2","48000","-16","experiment","0","even","56303.66802215576","NA","38289.80302810669","106928.45296859741","NA","48291.27097129822","3909.5869064331055","328973.5209941864","NA","NA","329490.0538921356","134965.33298492432","3963.2010459899902","NA","NA","NA","NA","NA","NA","NA","NA","NA","93434.71193313599","NA","329491.6570186615","254439.17393684387","328964.93005752563","NA","134942.43097305298","NA","93425.90808868408","330231.2250137329","NA","56292.136907577515","NA","NA","New experiment","9","66559.06748771667","14","1024"
"66","NA","66","4527","4527","#3d3846","psycho","NA","1","undefined","undefined","1","right","0","0","0","0","0","0","0","14","NA","0","14","0","0","NA","NA","NA","0","NA","NA","NA","NA","NA","0","NA","14","0","14","0","0","0","0","14","0","0","0","NA","Sun Oct 15 17:00:06 2023","50","The main experiment item","yes","CogPsy_Assignment_With_Instruction.osexp","/home/matt/Documents/VU/MS/Cognitive_Psychology/project","no","mono","no","18","no","white","no","Professional and Technical Occupations","yes","768","/home/matt/Documents/VU/MS/Cognitive_Psychology/project/subject-0.csv","real","Melodramatic Milgram","4.0.6","photo","right","down","NA","right","right","NA","right","1354.3779850006104","3940.9079551696777","NA","119473.58107566833","34299.49593544006","NA","1354.3779850006104","NA","NA","2","real_50","1024","2","48000","-16","experiment","0","even","56303.66802215576","NA","38289.80302810669","106928.45296859741","NA","48291.27097129822","3909.5869064331055","330373.40807914734","NA","NA","330890.2380466461","134965.33298492432","3963.2010459899902","NA","NA","NA","NA","NA","NA","NA","NA","NA","93434.71193313599","NA","330892.5940990448","254439.17393684387","330364.3310070038","NA","134942.43097305298","NA","93425.90808868408","332247.2689151764","NA","56292.136907577515","NA","NA","New experiment","10","67913.44547271729","15","1024"
"68","NA","68","5046","5046","#3d3846","psycho","NA","1","undefined","undefined","1","left","0","0","0","0","0","0","0","15","NA","0","15","0","0","NA","NA","NA","0","NA","NA","NA","NA","NA","0","NA","15","0","15","0","0","0","0","15","0","0","0","NA","Sun Oct 15 17:00:06 2023","50","The main experiment item","yes","CogPsy_Assignment_With_Instruction.osexp","/home/matt/Documents/VU/MS/Cognitive_Psychology/project","no","mono","no","18","no","white","no","Professional and Technical Occupations","yes","768","/home/matt/Documents/VU/MS/Cognitive_Psychology/project/subject-0.csv","fake","Melodramatic Milgram","4.0.6","bottom_left","left","down","NA","right","right","NA","left","12827.12984085083","3940.9079551696777","NA","119473.58107566833","34299.49593544006","NA","12827.12984085083","NA","NA","2","fake_1_50","1024","2","48000","-16","experiment","0","even","56303.66802215576","NA","38289.80302810669","106928.45296859741","NA","48291.27097129822","3909.5869064331055","332373.5101222992","NA","NA","332890.2060985565","134965.33298492432","3963.2010459899902","NA","NA","NA","NA","NA","NA","NA","NA","NA","93434.71193313599","NA","332891.82806015015","254439.17393684387","332358.0210208893","NA","134942.43097305298","NA","93425.90808868408","345719.3651199341","NA","56292.136907577515","NA","NA","New experiment","11","80740.57531356812","16","1024"
"64","NA","64","5309","5309","#3d3846","psycho","NA","0","undefined","undefined","0","left","0","0","0","0","0","0","0","16","NA","0","16","0","0","NA","NA","NA","0","NA","NA","NA","NA","NA","0","NA","16","0","16","0","0","0","0","16","0","0","0","NA","Sun Oct 15 17:00:06 2023","20","The main experiment item","yes","CogPsy_Assignment_With_Instruction.osexp","/home/matt/Documents/VU/MS/Cognitive_Psychology/project","no","mono","no","18","no","white","no","Professional and Technical Occupations","yes","768","/home/matt/Documents/VU/MS/Cognitive_Psychology/project/subject-0.csv","fake","Melodramatic Milgram","4.0.6","DullHologram2","right","down","NA","right","right","NA","right","9518.448829650879","3940.9079551696777","NA","119473.58107566833","34299.49593544006","NA","9518.448829650879","NA","NA","2","fake_20","1024","2","48000","-16","experiment","0","even","56303.66802215576","NA","38289.80302810669","106928.45296859741","NA","48291.27097129822","3909.5869064331055","345874.45998191833","NA","NA","346391.0439014435","134965.33298492432","3963.2010459899902","NA","NA","NA","NA","NA","NA","NA","NA","NA","93434.71193313599","NA","346392.578125","254439.17393684387","345857.528924942","NA","134942.43097305298","NA","93425.90808868408","355911.3450050354","NA","56292.136907577515","NA","NA","New experiment","11","90259.024143219","17","1024"
"66","NA","66","5332","5332","#3d3846","psycho","NA","1","undefined","undefined","1","right","0","0","0","0","0","0","0","17","NA","0","17","0","0","NA","NA","NA","0","NA","NA","NA","NA","NA","0","NA","17","0","17","0","0","0","0","17","0","0","0","NA","Sun Oct 15 17:00:06 2023","20","The main experiment item","yes","CogPsy_Assignment_With_Instruction.osexp","/home/matt/Documents/VU/MS/Cognitive_Psychology/project","no","mono","no","18","no","white","no","Professional and Technical Occupations","yes","768","/home/matt/Documents/VU/MS/Cognitive_Psychology/project/subject-0.csv","real","Melodramatic Milgram","4.0.6","photo","right","down","NA","right","right","NA","right","5734.289884567261","3940.9079551696777","NA","119473.58107566833","34299.49593544006","NA","5734.289884567261","NA","NA","2","real_20","1024","2","48000","-16","experiment","0","even","56303.66802215576","NA","38289.80302810669","106928.45296859741","NA","48291.27097129822","3909.5869064331055","356091.68004989624","NA","NA","356608.0210208893","134965.33298492432","3963.2010459899902","NA","NA","NA","NA","NA","NA","NA","NA","NA","93434.71193313599","NA","356608.68310928345","254439.17393684387","356075.24609565735","NA","134942.43097305298","NA","93425.90808868408","362343.2741165161","NA","56292.136907577515","NA","NA","New experiment","12","95993.31402778625","18","1024"
"63","NA","63","5114","5114","#3d3846","psycho","NA","0","undefined","undefined","0","left","0","0","0","0","0","0","0","18","NA","0","18","0","0","NA","NA","NA","0","NA","NA","NA","NA","NA","0","NA","18","0","18","0","0","0","0","18","0","0","0","NA","Sun Oct 15 17:00:06 2023","50","The main experiment item","yes","CogPsy_Assignment_With_Instruction.osexp","/home/matt/Documents/VU/MS/Cognitive_Psychology/project","no","mono","no","18","no","white","no","Professional and Technical Occupations","yes","768","/home/matt/Documents/VU/MS/Cognitive_Psychology/project/subject-0.csv","fake","Melodramatic Milgram","4.0.6","PurpleDenomination","right","down","NA","right","right","NA","right","1190.9949779510498","3940.9079551696777","NA","119473.58107566833","34299.49593544006","NA","1190.9949779510498","NA","NA","2","fake_2_50","1024","2","48000","-16","experiment","0","even","56303.66802215576","NA","38289.80302810669","106928.45296859741","NA","48291.27097129822","3909.5869064331055","362478.90305519104","NA","NA","362991.8260574341","134965.33298492432","3963.2010459899902","NA","NA","NA","NA","NA","NA","NA","NA","NA","93434.71193313599","NA","362991.9710159302","254439.17393684387","362471.0690975189","NA","134942.43097305298","NA","93425.90808868408","364183.2730770111","NA","56292.136907577515","NA","NA","New experiment","12","97184.3090057373","19","1024"
"65","NA","65","5058","5058","#3d3846","psycho","NA","1","undefined","undefined","1","left","0","0","0","0","0","0","0","19","NA","0","19","0","0","NA","NA","NA","0","NA","NA","NA","NA","NA","0","NA","19","0","19","0","0","0","0","19","0","0","0","NA","Sun Oct 15 17:00:06 2023","50","The main experiment item","yes","CogPsy_Assignment_With_Instruction.osexp","/home/matt/Documents/VU/MS/Cognitive_Psychology/project","no","mono","no","18","no","white","no","Professional and Technical Occupations","yes","768","/home/matt/Documents/VU/MS/Cognitive_Psychology/project/subject-0.csv","fake","Melodramatic Milgram","4.0.6","PurpleDenomination","left","down","NA","right","right","NA","left","3979.5100688934326","3940.9079551696777","NA","119473.58107566833","34299.49593544006","NA","3979.5100688934326","NA","NA","2","fake_2_50","1024","2","48000","-16","experiment","0","even","56303.66802215576","NA","38289.80302810669","106928.45296859741","NA","48291.27097129822","3909.5869064331055","364325.1609802246","NA","NA","364842.0379161835","134965.33298492432","3963.2010459899902","NA","NA","NA","NA","NA","NA","NA","NA","NA","93434.71193313599","NA","364843.47105026245","254439.17393684387","364310.72902679443","NA","134942.43097305298","NA","93425.90808868408","368823.29392433167","NA","56292.136907577515","NA","NA","New experiment","13","101163.81907463074","20","1024"
"66","NA","66","5425","5425","#3d3846","psycho","NA","1","undefined","undefined","1","left","0","0","0","0","0","0","0","20","NA","0","20","0","0","NA","NA","NA","0","NA","NA","NA","NA","NA","0","NA","20","0","20","0","0","0","0","20","0","0","0","NA","Sun Oct 15 17:00:06 2023","20","The main experiment item","yes","CogPsy_Assignment_With_Instruction.osexp","/home/matt/Documents/VU/MS/Cognitive_Psychology/project","no","mono","no","18","no","white","no","Professional and Technical Occupations","yes","768","/home/matt/Documents/VU/MS/Cognitive_Psychology/project/subject-0.csv","fake","Melodramatic Milgram","4.0.6","DullHologram","left","down","NA","right","right","NA","left","12769.159078598022","3940.9079551696777","NA","119473.58107566833","34299.49593544006","NA","12769.159078598022","NA","NA","2","fake_20","1024","2","48000","-16","experiment","0","even","56303.66802215576","NA","38289.80302810669","106928.45296859741","NA","48291.27097129822","3909.5869064331055","368975.6031036377","NA","NA","369492.30790138245","134965.33298492432","3963.2010459899902","NA","NA","NA","NA","NA","NA","NA","NA","NA","93434.71193313599","NA","369493.87097358704","254439.17393684387","368958.4801197052","NA","134942.43097305298","NA","93425.90808868408","382263.375043869","NA","56292.136907577515","NA","NA","New experiment","14","113932.97815322876","21","1024"
"68","NA","68","5406","5406","#3d3846","psycho","NA","1","undefined","undefined","1","left","0","0","0","0","0","0","0","21","NA","0","21","0","0","NA","NA","NA","0","NA","NA","NA","NA","NA","0","NA","21","0","21","0","0","0","0","21","0","0","0","NA","Sun Oct 15 17:00:06 2023","50","The main experiment item","yes","CogPsy_Assignment_With_Instruction.osexp","/home/matt/Documents/VU/MS/Cognitive_Psychology/project","no","mono","no","18","no","white","no","Professional and Technical Occupations","yes","768","/home/matt/Documents/VU/MS/Cognitive_Psychology/project/subject-0.csv","fake","Melodramatic Milgram","4.0.6","NoNumOnThread_BlurryWatermark","left","down","NA","right","right","NA","left","5015.487909317017","3940.9079551696777","NA","119473.58107566833","34299.49593544006","NA","5015.487909317017","NA","NA","2","fake_2_50","1024","2","48000","-16","experiment","0","even","56303.66802215576","NA","38289.80302810669","106928.45296859741","NA","48291.27097129822","3909.5869064331055","382409.8880290985","NA","NA","382926.37395858765","134965.33298492432","3963.2010459899902","NA","NA","NA","NA","NA","NA","NA","NA","NA","93434.71193313599","NA","382927.531003952","254439.17393684387","382398.9050388336","NA","134942.43097305298","NA","93425.90808868408","387943.32909584045","NA","56292.136907577515","NA","NA","New experiment","15","118948.46606254578","22","1024"
"69","NA","69","5250","5250","#3d3846","psycho","NA","1","undefined","undefined","1","left","0","0","0","0","0","0","0","22","NA","0","22","0","0","NA","NA","NA","0","NA","NA","NA","NA","NA","0","NA","22","0","22","0","0","0","0","22","0","0","0","NA","Sun Oct 15 17:00:06 2023","50","The main experiment item","yes","CogPsy_Assignment_With_Instruction.osexp","/home/matt/Documents/VU/MS/Cognitive_Psychology/project","no","mono","no","18","no","white","no","Professional and Technical Occupations","yes","768","/home/matt/Documents/VU/MS/Cognitive_Psychology/project/subject-0.csv","fake","Melodramatic Milgram","4.0.6","NoNumOnThread_BlurryWatermark","left","down","NA","right","right","NA","left","1811.3939762115479","3940.9079551696777","NA","119473.58107566833","34299.49593544006","NA","1811.3939762115479","NA","NA","2","fake_2_50","1024","2","48000","-16","experiment","0","even","56303.66802215576","NA","38289.80302810669","106928.45296859741","NA","48291.27097129822","3909.5869064331055","388093.5800075531","NA","NA","388610.13007164","134965.33298492432","3963.2010459899902","NA","NA","NA","NA","NA","NA","NA","NA","NA","93434.71193313599","NA","388611.6180419922","254439.17393684387","388077.78811454773","NA","134942.43097305298","NA","93425.90808868408","390423.32911491394","NA","56292.136907577515","NA","NA","New experiment","16","120759.86003875732","23","1024"
"70","NA","70","5230","5230","#3d3846","psycho","NA","1","undefined","undefined","1","right","0","0","0","0","0","0","0","23","NA","0","23","0","0","NA","NA","NA","0","NA","NA","NA","NA","NA","0","NA","23","0","23","0","0","0","0","23","0","0","0","NA","Sun Oct 15 17:00:06 2023","20","The main experiment item","yes","CogPsy_Assignment_With_Instruction.osexp","/home/matt/Documents/VU/MS/Cognitive_Psychology/project","no","mono","no","18","no","white","no","Professional and Technical Occupations","yes","768","/home/matt/Documents/VU/MS/Cognitive_Psychology/project/subject-0.csv","real","Melodramatic Milgram","4.0.6","genuine","right","down","NA","right","right","NA","right","4770.356178283691","3940.9079551696777","NA","119473.58107566833","34299.49593544006","NA","4770.356178283691","NA","NA","2","real_20","1024","2","48000","-16","experiment","0","even","56303.66802215576","NA","38289.80302810669","106928.45296859741","NA","48291.27097129822","3909.5869064331055","390546.6330051422","NA","NA","391060.3699684143","134965.33298492432","3963.2010459899902","NA","NA","NA","NA","NA","NA","NA","NA","NA","93434.71193313599","NA","391060.64891815186","254439.17393684387","390538.6791229248","NA","134942.43097305298","NA","93425.90808868408","395831.3341140747","NA","56292.136907577515","NA","NA","New experiment","17","125530.21621704102","24","1024"
"72","NA","72","5116","5116","#3d3846","psycho","NA","1","undefined","undefined","1","left","0","0","0","0","0","0","0","24","NA","0","24","0","0","NA","NA","NA","0","NA","NA","NA","NA","NA","0","NA","24","0","24","0","0","0","0","24","0","0","0","NA","Sun Oct 15 17:00:06 2023","20","The main experiment item","yes","CogPsy_Assignment_With_Instruction.osexp","/home/matt/Documents/VU/MS/Cognitive_Psychology/project","no","mono","no","18","no","white","no","Professional and Technical Occupations","yes","768","/home/matt/Documents/VU/MS/Cognitive_Psychology/project/subject-0.csv","fake","Melodramatic Milgram","4.0.6","PurpleDenomination","left","down","NA","right","right","NA","left","2392.544984817505","3940.9079551696777","NA","119473.58107566833","34299.49593544006","NA","2392.544984817505","NA","NA","2","fake_20","1024","2","48000","-16","experiment","0","even","56303.66802215576","NA","38289.80302810669","106928.45296859741","NA","48291.27097129822","3909.5869064331055","395977.3530960083","NA","NA","396493.6730861664","134965.33298492432","3963.2010459899902","NA","NA","NA","NA","NA","NA","NA","NA","NA","93434.71193313599","NA","396494.44794654846","254439.17393684387","395967.1320915222","NA","134942.43097305298","NA","93425.90808868408","398887.3379230499","NA","56292.136907577515","NA","NA","New experiment","18","127922.76120185852","25","1024"
"73","NA","73","4956","4956","#3d3846","psycho","NA","1","undefined","undefined","1","left","0","0","0","0","0","0","0","25","NA","0","25","0","0","NA","NA","NA","0","NA","NA","NA","NA","NA","0","NA","25","0","25","0","0","0","0","25","0","0","0","NA","Sun Oct 15 17:00:06 2023","50","The main experiment item","yes","CogPsy_Assignment_With_Instruction.osexp","/home/matt/Documents/VU/MS/Cognitive_Psychology/project","no","mono","no","18","no","white","no","Professional and Technical Occupations","yes","768","/home/matt/Documents/VU/MS/Cognitive_Psychology/project/subject-0.csv","fake","Melodramatic Milgram","4.0.6","GreyDenomination","left","down","NA","right","right","NA","left","957.0300579071045","3940.9079551696777","NA","119473.58107566833","34299.49593544006","NA","957.0300579071045","NA","NA","2","fake_2_50","1024","2","48000","-16","experiment","0","even","56303.66802215576","NA","38289.80302810669","106928.45296859741","NA","48291.27097129822","3909.5869064331055","399044.05093193054","NA","NA","399560.8940124512","134965.33298492432","3963.2010459899902","NA","NA","NA","NA","NA","NA","NA","NA","NA","93434.71193313599","NA","399562.01100349426","254439.17393684387","399024.6241092682","NA","134942.43097305298","NA","93425.90808868408","400519.37794685364","NA","56292.136907577515","NA","NA","New experiment","19","128879.79125976562","26","1024"
"70","NA","70","4898","4898","#3d3846","psycho","NA","0","undefined","undefined","0","left","0","0","0","0","0","0","0","26","NA","0","26","0","0","NA","NA","NA","0","NA","NA","NA","NA","NA","0","NA","26","0","26","0","0","0","0","26","0","0","0","NA","Sun Oct 15 17:00:06 2023","20","The main experiment item","yes","CogPsy_Assignment_With_Instruction.osexp","/home/matt/Documents/VU/MS/Cognitive_Psychology/project","no","mono","no","18","no","white","no","Professional and Technical Occupations","yes","768","/home/matt/Documents/VU/MS/Cognitive_Psychology/project/subject-0.csv","fake","Melodramatic Milgram","4.0.6","NoNumOnThread_BlurryWatermark","right","down","NA","right","right","NA","right","3387.4480724334717","3940.9079551696777","NA","119473.58107566833","34299.49593544006","NA","3387.4480724334717","NA","NA","2","fake_20","1024","2","48000","-16","experiment","0","even","56303.66802215576","NA","38289.80302810669","106928.45296859741","NA","48291.27097129822","3909.5869064331055","400694.31495666504","NA","NA","401210.95991134644","134965.33298492432","3963.2010459899902","NA","NA","NA","NA","NA","NA","NA","NA","NA","93434.71193313599","NA","401211.56096458435","254439.17393684387","400677.50906944275","NA","134942.43097305298","NA","93425.90808868408","404599.34401512146","NA","56292.136907577515","NA","NA","New experiment","19","132267.2393321991","27","1024"
"71","NA","71","5063","5063","#3d3846","psycho","NA","1","undefined","undefined","1","right","0","0","0","0","0","0","0","27","NA","0","27","0","0","NA","NA","NA","0","NA","NA","NA","NA","NA","0","NA","27","0","27","0","0","0","0","27","0","0","0","NA","Sun Oct 15 17:00:06 2023","20","The main experiment item","yes","CogPsy_Assignment_With_Instruction.osexp","/home/matt/Documents/VU/MS/Cognitive_Psychology/project","no","mono","no","18","no","white","no","Professional and Technical Occupations","yes","768","/home/matt/Documents/VU/MS/Cognitive_Psychology/project/subject-0.csv","real","Melodramatic Milgram","4.0.6","genuine","right","down","NA","right","right","NA","right","9513.491868972778","3940.9079551696777","NA","119473.58107566833","34299.49593544006","NA","9513.491868972778","NA","NA","2","real_20","1024","2","48000","-16","experiment","0","even","56303.66802215576","NA","38289.80302810669","106928.45296859741","NA","48291.27097129822","3909.5869064331055","404727.4401187897","NA","NA","405244.5430755615","134965.33298492432","3963.2010459899902","NA","NA","NA","NA","NA","NA","NA","NA","NA","93434.71193313599","NA","405245.5620765686","254439.17393684387","404713.37890625","NA","134942.43097305298","NA","93425.90808868408","414759.42301750183","NA","56292.136907577515","NA","NA","New experiment","20","141780.73120117188","28","1024"
"72","NA","72","5247","5247","#3d3846","psycho","NA","1","undefined","undefined","1","left","0","0","0","0","0","0","0","28","NA","0","28","0","0","NA","NA","NA","0","NA","NA","NA","NA","NA","0","NA","28","0","28","0","0","0","0","28","0","0","0","NA","Sun Oct 15 17:00:06 2023","50","The main experiment item","yes","CogPsy_Assignment_With_Instruction.osexp","/home/matt/Documents/VU/MS/Cognitive_Psychology/project","no","mono","no","18","no","white","no","Professional and Technical Occupations","yes","768","/home/matt/Documents/VU/MS/Cognitive_Psychology/project/subject-0.csv","fake","Melodramatic Milgram","4.0.6","BadInk","left","down","NA","right","right","NA","left","10386.631965637207","3940.9079551696777","NA","119473.58107566833","34299.49593544006","NA","10386.631965637207","NA","NA","2","fake_2_50","1024","2","48000","-16","experiment","0","even","56303.66802215576","NA","38289.80302810669","106928.45296859741","NA","48291.27097129822","3909.5869064331055","414914.3850803375","NA","NA","415428.2479286194","134965.33298492432","3963.2010459899902","NA","NA","NA","NA","NA","NA","NA","NA","NA","93434.71193313599","NA","415428.4360408783","254439.17393684387","414906.1629772186","NA","134942.43097305298","NA","93425.90808868408","425815.4048919678","NA","56292.136907577515","NA","NA","New experiment","21","152167.36316680908","29","1024"
"73","NA","73","5443","5443","#3d3846","psycho","NA","1","undefined","undefined","1","right","0","0","0","0","0","0","0","29","NA","0","29","0","0","NA","NA","NA","0","NA","NA","NA","NA","NA","0","NA","29","0","29","0","0","0","0","29","0","0","0","NA","Sun Oct 15 17:00:06 2023","50","The main experiment item","yes","CogPsy_Assignment_With_Instruction.osexp","/home/matt/Documents/VU/MS/Cognitive_Psychology/project","no","mono","no","18","no","white","no","Professional and Technical Occupations","yes","768","/home/matt/Documents/VU/MS/Cognitive_Psychology/project/subject-0.csv","real","Melodramatic Milgram","4.0.6","photo","right","down","NA","right","right","NA","right","11142.971992492676","3940.9079551696777","NA","119473.58107566833","34299.49593544006","NA","11142.971992492676","NA","NA","2","real_50","1024","2","48000","-16","experiment","0","even","56303.66802215576","NA","38289.80302810669","106928.45296859741","NA","48291.27097129822","3909.5869064331055","425962.13603019714","NA","NA","426478.95407676697","134965.33298492432","3963.2010459899902","NA","NA","NA","NA","NA","NA","NA","NA","NA","93434.71193313599","NA","426480.0751209259","254439.17393684387","425951.7719745636","NA","134942.43097305298","NA","93425.90808868408","437623.389005661","NA","56292.136907577515","NA","NA","New experiment","22","163310.33515930176","30","1024"
"74","NA","74","6294","6294","#3d3846","psycho","NA","1","undefined","undefined","1","left","0","0","0","0","0","0","0","30","NA","0","30","0","0","NA","NA","NA","0","NA","NA","NA","NA","NA","0","NA","30","0","30","0","0","0","0","30","0","0","0","NA","Sun Oct 15 17:00:06 2023","20","The main experiment item","yes","CogPsy_Assignment_With_Instruction.osexp","/home/matt/Documents/VU/MS/Cognitive_Psychology/project","no","mono","no","18","no","white","no","Professional and Technical Occupations","yes","768","/home/matt/Documents/VU/MS/Cognitive_Psychology/project/subject-0.csv","fake","Melodramatic Milgram","4.0.6","DullHologram2","left","down","NA","right","right","NA","left","31806.44392967224","3940.9079551696777","NA","119473.58107566833","34299.49593544006","NA","31806.44392967224","NA","NA","2","fake_20","1024","2","48000","-16","experiment","0","even","56303.66802215576","NA","38289.80302810669","106928.45296859741","NA","48291.27097129822","3909.5869064331055","437781.3630104065","NA","NA","438296.41604423523","134965.33298492432","3963.2010459899902","NA","NA","NA","NA","NA","NA","NA","NA","NA","93434.71193313599","NA","438296.6539859772","254439.17393684387","437759.43899154663","NA","134942.43097305298","NA","93425.90808868408","470103.45101356506","NA","56292.136907577515","NA","NA","New experiment","23","195116.779088974","31","1024"
"75","NA","75","6372","6372","#3d3846","psycho","NA","1","undefined","undefined","1","right","0","0","0","0","0","0","0","31","NA","0","31","0","0","NA","NA","NA","0","NA","NA","NA","NA","NA","0","NA","31","0","31","0","0","0","0","31","0","0","0","NA","Sun Oct 15 17:00:06 2023","20","The main experiment item","yes","CogPsy_Assignment_With_Instruction.osexp","/home/matt/Documents/VU/MS/Cognitive_Psychology/project","no","mono","no","18","no","white","no","Professional and Technical Occupations","yes","768","/home/matt/Documents/VU/MS/Cognitive_Psychology/project/subject-0.csv","real","Melodramatic Milgram","4.0.6","photo","right","down","NA","right","right","NA","right","8806.472063064575","3940.9079551696777","NA","119473.58107566833","34299.49593544006","NA","8806.472063064575","NA","NA","2","real_20","1024","2","48000","-16","experiment","0","even","56303.66802215576","NA","38289.80302810669","106928.45296859741","NA","48291.27097129822","3909.5869064331055","470277.82702445984","NA","NA","470784.4560146332","134965.33298492432","3963.2010459899902","NA","NA","NA","NA","NA","NA","NA","NA","NA","93434.71193313599","NA","470784.6329212189","254439.17393684387","470261.0740661621","NA","134942.43097305298","NA","93425.90808868408","479591.4719104767","NA","56292.136907577515","NA","NA","New experiment","24","203923.25115203857","32","1024"
"75","NA","75","6371","6371","#3d3846","psycho","NA","1","undefined","undefined","1","left","0","0","0","0","0","0","0","32","NA","0","32","0","0","NA","NA","NA","0","NA","NA","NA","NA","NA","0","NA","32","0","32","0","0","0","0","32","0","0","0","NA","Sun Oct 15 17:00:06 2023","20","The main experiment item","yes","CogPsy_Assignment_With_Instruction.osexp","/home/matt/Documents/VU/MS/Cognitive_Psychology/project","no","mono","no","18","no","white","no","Professional and Technical Occupations","yes","768","/home/matt/Documents/VU/MS/Cognitive_Psychology/project/subject-0.csv","fake","Melodramatic Milgram","4.0.6","bottom_left","left","down","NA","right","right","NA","left","6349.597930908203","3940.9079551696777","NA","119473.58107566833","34299.49593544006","NA","6349.597930908203","NA","NA","2","fake_1_20","1024","2","48000","-16","experiment","0","even","56303.66802215576","NA","38289.80302810669","106928.45296859741","NA","48291.27097129822","3909.5869064331055","479715.13390541077","NA","NA","480231.96506500244","134965.33298492432","3963.2010459899902","NA","NA","NA","NA","NA","NA","NA","NA","NA","93434.71193313599","NA","480233.5031032562","254439.17393684387","479706.7611217499","NA","134942.43097305298","NA","93425.90808868408","486583.46605300903","NA","56292.136907577515","NA","NA","New experiment","25","210272.84908294678","33","1024"
"76","NA","76","6411","6411","#3d3846","psycho","NA","1","undefined","undefined","1","right","0","0","0","0","0","0","0","33","NA","0","33","0","0","NA","NA","NA","0","NA","NA","NA","NA","NA","0","NA","33","0","33","0","0","0","0","33","0","0","0","NA","Sun Oct 15 17:00:06 2023","50","The main experiment item","yes","CogPsy_Assignment_With_Instruction.osexp","/home/matt/Documents/VU/MS/Cognitive_Psychology/project","no","mono","no","18","no","white","no","Professional and Technical Occupations","yes","768","/home/matt/Documents/VU/MS/Cognitive_Psychology/project/subject-0.csv","real","Melodramatic Milgram","4.0.6","genuine","right","down","NA","right","right","NA","right","7717.228889465332","3940.9079551696777","NA","119473.58107566833","34299.49593544006","NA","7717.228889465332","NA","NA","2","real_50","1024","2","48000","-16","experiment","0","even","56303.66802215576","NA","38289.80302810669","106928.45296859741","NA","48291.27097129822","3909.5869064331055","486715.69299697876","NA","NA","487232.44404792786","134965.33298492432","3963.2010459899902","NA","NA","NA","NA","NA","NA","NA","NA","NA","93434.71193313599","NA","487233.9050769806","254439.17393684387","486695.8739757538","NA","134942.43097305298","NA","93425.90808868408","494951.4870643616","NA","56292.136907577515","NA","NA","New experiment","26","217990.0779724121","34","1024"
"74","NA","74","6530","6530","#3d3846","psycho","NA","0","undefined","undefined","0","left","0","0","0","0","0","0","0","34","NA","0","34","0","0","NA","NA","NA","0","NA","NA","NA","NA","NA","0","NA","34","0","34","0","0","0","0","34","0","0","0","NA","Sun Oct 15 17:00:06 2023","20","The main experiment item","yes","CogPsy_Assignment_With_Instruction.osexp","/home/matt/Documents/VU/MS/Cognitive_Psychology/project","no","mono","no","18","no","white","no","Professional and Technical Occupations","yes","768","/home/matt/Documents/VU/MS/Cognitive_Psychology/project/subject-0.csv","fake","Melodramatic Milgram","4.0.6","BadInk2","right","down","NA","right","right","NA","right","10565.349102020264","3940.9079551696777","NA","119473.58107566833","34299.49593544006","NA","10565.349102020264","NA","NA","2","fake_20","1024","2","48000","-16","experiment","0","even","56303.66802215576","NA","38289.80302810669","106928.45296859741","NA","48291.27097129822","3909.5869064331055","495099.4770526886","NA","NA","495616.2140369415","134965.33298492432","3963.2010459899902","NA","NA","NA","NA","NA","NA","NA","NA","NA","93434.71193313599","NA","495617.8150177002","254439.17393684387","495090.6329154968","NA","134942.43097305298","NA","93425.90808868408","506183.5219860077","NA","56292.136907577515","NA","NA","New experiment","26","228555.42707443237","35","1024"
"75","NA","75","6408","6408","#3d3846","psycho","NA","1","undefined","undefined","1","left","0","0","0","0","0","0","0","35","NA","0","35","0","0","NA","NA","NA","0","NA","NA","NA","NA","NA","0","NA","35","0","35","0","0","0","0","35","0","0","0","NA","Sun Oct 15 17:00:06 2023","20","The main experiment item","yes","CogPsy_Assignment_With_Instruction.osexp","/home/matt/Documents/VU/MS/Cognitive_Psychology/project","no","mono","no","18","no","white","no","Professional and Technical Occupations","yes","768","/home/matt/Documents/VU/MS/Cognitive_Psychology/project/subject-0.csv","fake","Melodramatic Milgram","4.0.6","DullHologram","left","down","NA","right","right","NA","left","2165.2438640594482","3940.9079551696777","NA","119473.58107566833","34299.49593544006","NA","2165.2438640594482","NA","NA","2","fake_20","1024","2","48000","-16","experiment","0","even","56303.66802215576","NA","38289.80302810669","106928.45296859741","NA","48291.27097129822","3909.5869064331055","506319.4320201874","NA","NA","506833.68396759033","134965.33298492432","3963.2010459899902","NA","NA","NA","NA","NA","NA","NA","NA","NA","93434.71193313599","NA","506833.89711380005","254439.17393684387","506311.7949962616","NA","134942.43097305298","NA","93425.90808868408","508999.50408935547","NA","56292.136907577515","NA","NA","New experiment","27","230720.67093849182","36","1024"
"72","NA","72","6378","6378","#3d3846","psycho","NA","0","undefined","undefined","0","left","0","0","0","0","0","0","0","36","NA","0","36","0","0","NA","NA","NA","0","NA","NA","NA","NA","NA","0","NA","36","0","36","0","0","0","0","36","0","0","0","NA","Sun Oct 15 17:00:06 2023","20","The main experiment item","yes","CogPsy_Assignment_With_Instruction.osexp","/home/matt/Documents/VU/MS/Cognitive_Psychology/project","no","mono","no","18","no","white","no","Professional and Technical Occupations","yes","768","/home/matt/Documents/VU/MS/Cognitive_Psychology/project/subject-0.csv","fake","Melodramatic Milgram","4.0.6","silver_strip","right","down","NA","right","right","NA","right","5268.270969390869","3940.9079551696777","NA","119473.58107566833","34299.49593544006","NA","5268.270969390869","NA","NA","2","fake_2_20","1024","2","48000","-16","experiment","0","even","56303.66802215576","NA","38289.80302810669","106928.45296859741","NA","48291.27097129822","3909.5869064331055","509133.8300704956","NA","NA","509650.2869129181","134965.33298492432","3963.2010459899902","NA","NA","NA","NA","NA","NA","NA","NA","NA","93434.71193313599","NA","509650.8901119232","254439.17393684387","509122.1590042114","NA","134942.43097305298","NA","93425.90808868408","514919.5249080658","NA","56292.136907577515","NA","NA","New experiment","27","235988.9419078827","37","1024"
"71","NA","71","6288","6288","#3d3846","psycho","NA","0","undefined","undefined","0","left","0","0","0","0","0","0","0","37","NA","0","37","0","0","NA","NA","NA","0","NA","NA","NA","NA","NA","0","NA","37","0","37","0","0","0","0","37","0","0","0","NA","Sun Oct 15 17:00:06 2023","50","The main experiment item","yes","CogPsy_Assignment_With_Instruction.osexp","/home/matt/Documents/VU/MS/Cognitive_Psychology/project","no","mono","no","18","no","white","no","Professional and Technical Occupations","yes","768","/home/matt/Documents/VU/MS/Cognitive_Psychology/project/subject-0.csv","fake","Melodramatic Milgram","4.0.6","PurpleDenomination2","right","down","NA","right","right","NA","right","2965.9531116485596","3940.9079551696777","NA","119473.58107566833","34299.49593544006","NA","2965.9531116485596","NA","NA","2","fake_2_50","1024","2","48000","-16","experiment","0","even","56303.66802215576","NA","38289.80302810669","106928.45296859741","NA","48291.27097129822","3909.5869064331055","515067.59309768677","NA","NA","515584.0411186218","134965.33298492432","3963.2010459899902","NA","NA","NA","NA","NA","NA","NA","NA","NA","93434.71193313599","NA","515585.1969718933","254439.17393684387","515054.00490760803","NA","134942.43097305298","NA","93425.90808868408","518551.51295661926","NA","56292.136907577515","NA","NA","New experiment","27","238954.89501953125","38","1024"
"71","NA","71","6205","6205","#3d3846","psycho","NA","1","undefined","undefined","1","left","0","0","0","0","0","0","0","38","NA","0","38","0","0","NA","NA","NA","0","NA","NA","NA","NA","NA","0","NA","38","0","38","0","0","0","0","38","0","0","0","NA","Sun Oct 15 17:00:06 2023","50","The main experiment item","yes","CogPsy_Assignment_With_Instruction.osexp","/home/matt/Documents/VU/MS/Cognitive_Psychology/project","no","mono","no","18","no","white","no","Professional and Technical Occupations","yes","768","/home/matt/Documents/VU/MS/Cognitive_Psychology/project/subject-0.csv","fake","Melodramatic Milgram","4.0.6","bottom_left","left","down","NA","right","right","NA","left","3045.5329418182373","3940.9079551696777","NA","119473.58107566833","34299.49593544006","NA","3045.5329418182373","NA","NA","2","fake_1_50","1024","2","48000","-16","experiment","0","even","56303.66802215576","NA","38289.80302810669","106928.45296859741","NA","48291.27097129822","3909.5869064331055","518684.48305130005","NA","NA","519201.0989189148","134965.33298492432","3963.2010459899902","NA","NA","NA","NA","NA","NA","NA","NA","NA","93434.71193313599","NA","519201.5860080719","254439.17393684387","518667.1190261841","NA","134942.43097305298","NA","93425.90808868408","522247.4949359894","NA","56292.136907577515","NA","NA","New experiment","28","242000.4279613495","39","1024"
"70","NA","70","6070","6070","#3d3846","psycho","NA","0","undefined","undefined","0","right","0","0","0","0","0","0","0","39","NA","0","39","0","0","NA","NA","NA","0","NA","NA","NA","NA","NA","0","NA","39","0","39","0","0","0","0","39","0","0","0","NA","Sun Oct 15 17:00:06 2023","50","The main experiment item","yes","CogPsy_Assignment_With_Instruction.osexp","/home/matt/Documents/VU/MS/Cognitive_Psychology/project","no","mono","no","18","no","white","no","Professional and Technical Occupations","yes","768","/home/matt/Documents/VU/MS/Cognitive_Psychology/project/subject-0.csv","real","Melodramatic Milgram","4.0.6","genuine","left","down","NA","right","right","NA","left","817.8551197052002","3940.9079551696777","NA","119473.58107566833","34299.49593544006","NA","817.8551197052002","NA","NA","2","real_20","1024","2","48000","-16","experiment","0","even","56303.66802215576","NA","38289.80302810669","106928.45296859741","NA","48291.27097129822","3909.5869064331055","522368.292093277","NA","NA","522884.4430446625","134965.33298492432","3963.2010459899902","NA","NA","NA","NA","NA","NA","NA","NA","NA","93434.71193313599","NA","522885.2689266205","254439.17393684387","522360.12506484985","NA","134942.43097305298","NA","93425.90808868408","523703.50193977356","NA","56292.136907577515","NA","NA","New experiment","28","242818.2830810547","40","1024"
"68","NA","68","6349","6349","#3d3846","psycho","NA","0","undefined","undefined","0","left","0","0","0","0","0","0","0","40","NA","0","40","0","0","NA","NA","NA","0","NA","NA","NA","NA","NA","0","NA","40","0","40","0","0","0","0","40","0","0","0","NA","Sun Oct 15 17:00:06 2023","20","The main experiment item","yes","CogPsy_Assignment_With_Instruction.osexp","/home/matt/Documents/VU/MS/Cognitive_Psychology/project","no","mono","no","18","no","white","no","Professional and Technical Occupations","yes","768","/home/matt/Documents/VU/MS/Cognitive_Psychology/project/subject-0.csv","fake","Melodramatic Milgram","4.0.6","bottom_left","right","down","NA","right","right","NA","right","17525.98214149475","3940.9079551696777","NA","119473.58107566833","34299.49593544006","NA","17525.98214149475","NA","NA","2","fake_1_20","1024","2","48000","-16","experiment","0","even","56303.66802215576","NA","38289.80302810669","106928.45296859741","NA","48291.27097129822","3909.5869064331055","523834.6860408783","NA","NA","524351.3090610504","134965.33298492432","3963.2010459899902","NA","NA","NA","NA","NA","NA","NA","NA","NA","93434.71193313599","NA","524353.1649112701","254439.17393684387","523821.830034256","NA","134942.43097305298","NA","93425.90808868408","541879.5249462128","NA","56292.136907577515","NA","NA","New experiment","28","260344.26522254944","41","1024"
"66","NA","66","6269","6269","#3d3846","psycho","NA","0","undefined","undefined","0","right","0","0","0","0","0","0","0","41","NA","0","41","0","0","NA","NA","NA","0","NA","NA","NA","NA","NA","0","NA","41","0","41","0","0","0","0","41","0","0","0","NA","Sun Oct 15 17:00:06 2023","20","The main experiment item","yes","CogPsy_Assignment_With_Instruction.osexp","/home/matt/Documents/VU/MS/Cognitive_Psychology/project","no","mono","no","18","no","white","no","Professional and Technical Occupations","yes","768","/home/matt/Documents/VU/MS/Cognitive_Psychology/project/subject-0.csv","real","Melodramatic Milgram","4.0.6","genuine","left","down","NA","right","right","NA","left","2974.8449325561523","3940.9079551696777","NA","119473.58107566833","34299.49593544006","NA","2974.8449325561523","NA","NA","2","real_20","1024","2","48000","-16","experiment","0","even","56303.66802215576","NA","38289.80302810669","106928.45296859741","NA","48291.27097129822","3909.5869064331055","542002.240896225","NA","NA","542518.9480781555","134965.33298492432","3963.2010459899902","NA","NA","NA","NA","NA","NA","NA","NA","NA","93434.71193313599","NA","542520.2989578247","254439.17393684387","541992.094039917","NA","134942.43097305298","NA","93425.90808868408","545495.523929596","NA","56292.136907577515","NA","NA","New experiment","28","263319.1101551056","42","1024"
"65","NA","65","6240","6240","#3d3846","psycho","NA","0","undefined","undefined","0","left","0","0","0","0","0","0","0","42","NA","0","42","0","0","NA","NA","NA","0","NA","NA","NA","NA","NA","0","NA","42","0","42","0","0","0","0","42","0","0","0","NA","Sun Oct 15 17:00:06 2023","20","The main experiment item","yes","CogPsy_Assignment_With_Instruction.osexp","/home/matt/Documents/VU/MS/Cognitive_Psychology/project","no","mono","no","18","no","white","no","Professional and Technical Occupations","yes","768","/home/matt/Documents/VU/MS/Cognitive_Psychology/project/subject-0.csv","fake","Melodramatic Milgram","4.0.6","BadInk","right","down","NA","right","right","NA","right","5036.5149974823","3940.9079551696777","NA","119473.58107566833","34299.49593544006","NA","5036.5149974823","NA","NA","2","fake_20","1024","2","48000","-16","experiment","0","even","56303.66802215576","NA","38289.80302810669","106928.45296859741","NA","48291.27097129822","3909.5869064331055","545652.5869369507","NA","NA","546169.2080497742","134965.33298492432","3963.2010459899902","NA","NA","NA","NA","NA","NA","NA","NA","NA","93434.71193313599","NA","546170.6230640411","254439.17393684387","545635.852098465","NA","134942.43097305298","NA","93425.90808868408","551207.5319290161","NA","56292.136907577515","NA","NA","New experiment","28","268355.6251525879","43","1024"
"65","NA","65","6206","6206","#3d3846","psycho","NA","1","undefined","undefined","1","right","0","0","0","0","0","0","0","43","NA","0","43","0","0","NA","NA","NA","0","NA","NA","NA","NA","NA","0","NA","43","0","43","0","0","0","0","43","0","0","0","NA","Sun Oct 15 17:00:06 2023","50","The main experiment item","yes","CogPsy_Assignment_With_Instruction.osexp","/home/matt/Documents/VU/MS/Cognitive_Psychology/project","no","mono","no","18","no","white","no","Professional and Technical Occupations","yes","768","/home/matt/Documents/VU/MS/Cognitive_Psychology/project/subject-0.csv","real","Melodramatic Milgram","4.0.6","photo_2","right","down","NA","right","right","NA","right","4728.427886962891","3940.9079551696777","NA","119473.58107566833","34299.49593544006","NA","4728.427886962891","NA","NA","2","real_50","1024","2","48000","-16","experiment","0","even","56303.66802215576","NA","38289.80302810669","106928.45296859741","NA","48291.27097129822","3909.5869064331055","551352.5519371033","NA","NA","551869.4679737091","134965.33298492432","3963.2010459899902","NA","NA","NA","NA","NA","NA","NA","NA","NA","93434.71193313599","NA","551870.7630634308","254439.17393684387","551333.5189819336","NA","134942.43097305298","NA","93425.90808868408","556599.5779037476","NA","56292.136907577515","NA","NA","New experiment","29","273084.0530395508","44","1024"
"64","NA","64","6131","6131","#3d3846","psycho","NA","0","undefined","undefined","0","left","0","0","0","0","0","0","0","44","NA","0","44","0","0","NA","NA","NA","0","NA","NA","NA","NA","NA","0","NA","44","0","44","0","0","0","0","44","0","0","0","NA","Sun Oct 15 17:00:06 2023","20","The main experiment item","yes","CogPsy_Assignment_With_Instruction.osexp","/home/matt/Documents/VU/MS/Cognitive_Psychology/project","no","mono","no","18","no","white","no","Professional and Technical Occupations","yes","768","/home/matt/Documents/VU/MS/Cognitive_Psychology/project/subject-0.csv","fake","Melodramatic Milgram","4.0.6","NoNumOnThread_BlurryWatermark","right","down","NA","right","right","NA","right","2815.556049346924","3940.9079551696777","NA","119473.58107566833","34299.49593544006","NA","2815.556049346924","NA","NA","2","fake_20","1024","2","48000","-16","experiment","0","even","56303.66802215576","NA","38289.80302810669","106928.45296859741","NA","48291.27097129822","3909.5869064331055","556769.9871063232","NA","NA","557286.679983139","134965.33298492432","3963.2010459899902","NA","NA","NA","NA","NA","NA","NA","NA","NA","93434.71193313599","NA","557287.5759601593","254439.17393684387","556758.9499950409","NA","134942.43097305298","NA","93425.90808868408","560103.5339832306","NA","56292.136907577515","NA","NA","New experiment","29","275899.6090888977","45","1024"
"65","NA","65","6118","6118","#3d3846","psycho","NA","1","undefined","undefined","1","left","0","0","0","0","0","0","0","45","NA","0","45","0","0","NA","NA","NA","0","NA","NA","NA","NA","NA","0","NA","45","0","45","0","0","0","0","45","0","0","0","NA","Sun Oct 15 17:00:06 2023","20","The main experiment item","yes","CogPsy_Assignment_With_Instruction.osexp","/home/matt/Documents/VU/MS/Cognitive_Psychology/project","no","mono","no","18","no","white","no","Professional and Technical Occupations","yes","768","/home/matt/Documents/VU/MS/Cognitive_Psychology/project/subject-0.csv","fake","Melodramatic Milgram","4.0.6","BrownDenomination","left","down","NA","right","right","NA","left","5571.342945098877","3940.9079551696777","NA","119473.58107566833","34299.49593544006","NA","5571.342945098877","NA","NA","2","fake_20","1024","2","48000","-16","experiment","0","even","56303.66802215576","NA","38289.80302810669","106928.45296859741","NA","48291.27097129822","3909.5869064331055","560253.504037857","NA","NA","560770.1230049133","134965.33298492432","3963.2010459899902","NA","NA","NA","NA","NA","NA","NA","NA","NA","93434.71193313599","NA","560771.8460559845","254439.17393684387","560238.3599281311","NA","134942.43097305298","NA","93425.90808868408","566343.6059951782","NA","56292.136907577515","NA","NA","New experiment","30","281470.9520339966","46","1024"
"65","NA","65","6042","6042","#3d3846","psycho","NA","1","undefined","undefined","1","right","0","0","0","0","0","0","0","46","NA","0","46","0","0","NA","NA","NA","0","NA","NA","NA","NA","NA","0","NA","46","0","46","0","0","0","0","46","0","0","0","NA","Sun Oct 15 17:00:06 2023","20","The main experiment item","yes","CogPsy_Assignment_With_Instruction.osexp","/home/matt/Documents/VU/MS/Cognitive_Psychology/project","no","mono","no","18","no","white","no","Professional and Technical Occupations","yes","768","/home/matt/Documents/VU/MS/Cognitive_Psychology/project/subject-0.csv","real","Melodramatic Milgram","4.0.6","photo","right","down","NA","right","right","NA","right","2521.2368965148926","3940.9079551696777","NA","119473.58107566833","34299.49593544006","NA","2521.2368965148926","NA","NA","2","real_20","1024","2","48000","-16","experiment","0","even","56303.66802215576","NA","38289.80302810669","106928.45296859741","NA","48291.27097129822","3909.5869064331055","566520.3759670258","NA","NA","567037.0180606842","134965.33298492432","3963.2010459899902","NA","NA","NA","NA","NA","NA","NA","NA","NA","93434.71193313599","NA","567037.976026535","254439.17393684387","566501.6069412231","NA","134942.43097305298","NA","93425.90808868408","569559.6640110016","NA","56292.136907577515","NA","NA","New experiment","31","283992.1889305115","47","1024"
"66","NA","66","6014","6014","#3d3846","psycho","NA","1","undefined","undefined","1","right","0","0","0","0","0","0","0","47","NA","0","47","0","0","NA","NA","NA","0","NA","NA","NA","NA","NA","0","NA","47","0","47","0","0","0","0","47","0","0","0","NA","Sun Oct 15 17:00:06 2023","50","The main experiment item","yes","CogPsy_Assignment_With_Instruction.osexp","/home/matt/Documents/VU/MS/Cognitive_Psychology/project","no","mono","no","18","no","white","no","Professional and Technical Occupations","yes","768","/home/matt/Documents/VU/MS/Cognitive_Psychology/project/subject-0.csv","real","Melodramatic Milgram","4.0.6","photo_2","right","down","NA","right","right","NA","right","4713.612079620361","3940.9079551696777","NA","119473.58107566833","34299.49593544006","NA","4713.612079620361","NA","NA","2","real_50","1024","2","48000","-16","experiment","0","even","56303.66802215576","NA","38289.80302810669","106928.45296859741","NA","48291.27097129822","3909.5869064331055","569704.0259838104","NA","NA","570220.5169200897","134965.33298492432","3963.2010459899902","NA","NA","NA","NA","NA","NA","NA","NA","NA","93434.71193313599","NA","570221.5800285339","254439.17393684387","569686.4149570465","NA","134942.43097305298","NA","93425.90808868408","574935.6110095978","NA","56292.136907577515","NA","NA","New experiment","32","288705.80101013184","48","1024"
"67","NA","67","6074","6074","#3d3846","psycho","NA","1","undefined","undefined","1","right","0","0","0","0","0","0","0","48","NA","0","48","0","0","NA","NA","NA","0","NA","NA","NA","NA","NA","0","NA","48","0","48","0","0","0","0","48","0","0","0","NA","Sun Oct 15 17:00:06 2023","50","The main experiment item","yes","CogPsy_Assignment_With_Instruction.osexp","/home/matt/Documents/VU/MS/Cognitive_Psychology/project","no","mono","no","18","no","white","no","Professional and Technical Occupations","yes","768","/home/matt/Documents/VU/MS/Cognitive_Psychology/project/subject-0.csv","real","Melodramatic Milgram","4.0.6","genuine","right","down","NA","right","right","NA","right","8963.032007217407","3940.9079551696777","NA","119473.58107566833","34299.49593544006","NA","8963.032007217407","NA","NA","2","real_20","1024","2","48000","-16","experiment","0","even","56303.66802215576","NA","38289.80302810669","106928.45296859741","NA","48291.27097129822","3909.5869064331055","575054.260969162","NA","NA","575571.0909366608","134965.33298492432","3963.2010459899902","NA","NA","NA","NA","NA","NA","NA","NA","NA","93434.71193313599","NA","575572.1440315247","254439.17393684387","575046.1099147797","NA","134942.43097305298","NA","93425.90808868408","584535.5889797211","NA","56292.136907577515","NA","NA","New experiment","33","297668.83301734924","49","1024"
"68","NA","68","5988","5988","#3d3846","psycho","NA","1","undefined","undefined","1","left","0","0","0","0","0","0","0","49","NA","0","49","0","0","NA","NA","NA","0","NA","NA","NA","NA","NA","0","NA","49","0","49","0","0","0","0","49","0","0","0","NA","Sun Oct 15 17:00:06 2023","50","The main experiment item","yes","CogPsy_Assignment_With_Instruction.osexp","/home/matt/Documents/VU/MS/Cognitive_Psychology/project","no","mono","no","18","no","white","no","Professional and Technical Occupations","yes","768","/home/matt/Documents/VU/MS/Cognitive_Psychology/project/subject-0.csv","fake","Melodramatic Milgram","4.0.6","PurpleDenomination3","left","down","NA","right","right","NA","left","1776.2739658355713","3940.9079551696777","NA","119473.58107566833","34299.49593544006","NA","1776.2739658355713","NA","NA","2","fake_2_50","1024","2","48000","-16","experiment","0","even","56303.66802215576","NA","38289.80302810669","106928.45296859741","NA","48291.27097129822","3909.5869064331055","584688.3080005646","NA","NA","585204.8509120941","134965.33298492432","3963.2010459899902","NA","NA","NA","NA","NA","NA","NA","NA","NA","93434.71193313599","NA","585206.9311141968","254439.17393684387","584671.9899177551","NA","134942.43097305298","NA","93425.90808868408","586983.6161136627","NA","56292.136907577515","NA","NA","New experiment","34","299445.1069831848","50","1024"
"68","NA","68","6006","6006","#3d3846","psycho","NA","1","undefined","undefined","1","right","0","0","0","0","0","0","0","50","NA","0","50","0","0","NA","NA","NA","0","NA","NA","NA","NA","NA","0","NA","50","0","50","0","0","0","0","50","0","0","0","NA","Sun Oct 15 17:00:06 2023","50","The main experiment item","yes","CogPsy_Assignment_With_Instruction.osexp","/home/matt/Documents/VU/MS/Cognitive_Psychology/project","no","mono","no","18","no","white","no","Professional and Technical Occupations","yes","768","/home/matt/Documents/VU/MS/Cognitive_Psychology/project/subject-0.csv","real","Melodramatic Milgram","4.0.6","photo_2","right","down","NA","right","right","NA","right","6879.855155944824","3940.9079551696777","NA","119473.58107566833","34299.49593544006","NA","6879.855155944824","NA","NA","2","real_50","1024","2","48000","-16","experiment","0","even","56303.66802215576","NA","38289.80302810669","106928.45296859741","NA","48291.27097129822","3909.5869064331055","587121.6530799866","NA","NA","587638.1120681763","134965.33298492432","3963.2010459899902","NA","NA","NA","NA","NA","NA","NA","NA","NA","93434.71193313599","NA","587639.349937439","254439.17393684387","587109.0009212494","NA","134942.43097305298","NA","93425.90808868408","594519.6349620819","NA","56292.136907577515","NA","NA","New experiment","35","306324.96213912964","51","1024"
"69","NA","69","5977","5977","#3d3846","psycho","NA","1","undefined","undefined","1","left","0","0","0","0","0","0","0","51","NA","0","51","0","0","NA","NA","NA","0","NA","NA","NA","NA","NA","0","NA","51","0","51","0","0","0","0","51","0","0","0","NA","Sun Oct 15 17:00:06 2023","50","The main experiment item","yes","CogPsy_Assignment_With_Instruction.osexp","/home/matt/Documents/VU/MS/Cognitive_Psychology/project","no","mono","no","18","no","white","no","Professional and Technical Occupations","yes","768","/home/matt/Documents/VU/MS/Cognitive_Psychology/project/subject-0.csv","fake","Melodramatic Milgram","4.0.6","GreyDenomination","left","down","NA","right","right","NA","left","4512.681007385254","3940.9079551696777","NA","119473.58107566833","34299.49593544006","NA","4512.681007385254","NA","NA","2","fake_2_50","1024","2","48000","-16","experiment","0","even","56303.66802215576","NA","38289.80302810669","106928.45296859741","NA","48291.27097129822","3909.5869064331055","594672.1069812775","NA","NA","595188.7741088867","134965.33298492432","3963.2010459899902","NA","NA","NA","NA","NA","NA","NA","NA","NA","93434.71193313599","NA","595190.5419826508","254439.17393684387","594656.8260192871","NA","134942.43097305298","NA","93425.90808868408","599703.6440372467","NA","56292.136907577515","NA","NA","New experiment","36","310837.6431465149","52","1024"
"67","NA","67","6284","6284","#3d3846","psycho","NA","0","undefined","undefined","0","left","0","0","0","0","0","0","0","52","NA","0","52","0","0","NA","NA","NA","0","NA","NA","NA","NA","NA","0","NA","52","0","52","0","0","0","0","52","0","0","0","NA","Sun Oct 15 17:00:06 2023","20","The main experiment item","yes","CogPsy_Assignment_With_Instruction.osexp","/home/matt/Documents/VU/MS/Cognitive_Psychology/project","no","mono","no","18","no","white","no","Professional and Technical Occupations","yes","768","/home/matt/Documents/VU/MS/Cognitive_Psychology/project/subject-0.csv","fake","Melodramatic Milgram","4.0.6","silver_strip","right","down","NA","right","right","NA","right","22225.905895233154","3940.9079551696777","NA","119473.58107566833","34299.49593544006","NA","22225.905895233154","NA","NA","2","fake_2_20","1024","2","48000","-16","experiment","0","even","56303.66802215576","NA","38289.80302810669","106928.45296859741","NA","48291.27097129822","3909.5869064331055","599839.0119075775","NA","NA","600355.7620048523","134965.33298492432","3963.2010459899902","NA","NA","NA","NA","NA","NA","NA","NA","NA","93434.71193313599","NA","600357.3400974274","254439.17393684387","599825.4051208496","NA","134942.43097305298","NA","93425.90808868408","622583.67395401","NA","56292.136907577515","NA","NA","New experiment","36","333063.54904174805","53","1024"
"68","NA","68","6286","6286","#3d3846","psycho","NA","1","undefined","undefined","1","right","0","0","0","0","0","0","0","53","NA","0","53","0","0","NA","NA","NA","0","NA","NA","NA","NA","NA","0","NA","53","0","53","0","0","0","0","53","0","0","0","NA","Sun Oct 15 17:00:06 2023","50","The main experiment item","yes","CogPsy_Assignment_With_Instruction.osexp","/home/matt/Documents/VU/MS/Cognitive_Psychology/project","no","mono","no","18","no","white","no","Professional and Technical Occupations","yes","768","/home/matt/Documents/VU/MS/Cognitive_Psychology/project/subject-0.csv","real","Melodramatic Milgram","4.0.6","photo","right","down","NA","right","right","NA","right","6398.6170291900635","3940.9079551696777","NA","119473.58107566833","34299.49593544006","NA","6398.6170291900635","NA","NA","2","real_50","1024","2","48000","-16","experiment","0","even","56303.66802215576","NA","38289.80302810669","106928.45296859741","NA","48291.27097129822","3909.5869064331055","622727.842092514","NA","NA","623240.4220104218","134965.33298492432","3963.2010459899902","NA","NA","NA","NA","NA","NA","NA","NA","NA","93434.71193313599","NA","623240.6430244446","254439.17393684387","622719.8600769043","NA","134942.43097305298","NA","93425.90808868408","629639.6880149841","NA","56292.136907577515","NA","NA","New experiment","37","339462.1660709381","54","1024"
"68","NA","68","6286","6286","#3d3846","psycho","NA","1","undefined","undefined","1","right","0","0","0","0","0","0","0","53","NA","0","53","0","0","NA","NA","NA","0","NA","NA","NA","NA","NA","0","NA","53","0","53","0","0","0","0","53","0","0","0","NA","Sun Oct 15 17:00:06 2023","50","The main experiment item","yes","CogPsy_Assignment_With_Instruction.osexp","/home/matt/Documents/VU/MS/Cognitive_Psychology/project","no","mono","no","18","no","white","no","greeen gliter numbers, strip across the banknote, precison of the graphics of the window,the sizo of note ","yes","768","/home/matt/Documents/VU/MS/Cognitive_Psychology/project/subject-0.csv","real","Melodramatic Milgram","4.0.6","photo","greeen gliter numbers, strip across the banknote, precison of the graphics of the window,the sizo of note ","down","NA","right","right","NA","right","6398.6170291900635","3940.9079551696777","NA","119473.58107566833","34299.49593544006","NA","6398.6170291900635","NA","NA","2","real_50","1024","2","48000","-16","experiment","0","even","56303.66802215576","NA","38289.80302810669","106928.45296859741","NA","48291.27097129822","3909.5869064331055","622727.842092514","NA","NA","623240.4220104218","134965.33298492432","3963.2010459899902","NA","NA","NA","788851.804971695","NA","NA","NA","NA","NA","93434.71193313599","NA","623240.6430244446","254439.17393684387","622719.8600769043","NA","134942.43097305298","629710.1728916168","93425.90808868408","629639.6880149841","NA","56292.136907577515","NA","NA","New experiment","37","339462.1660709381","54","1024"
"68","NA","68","6286","6286","#3d3846","psycho","NA","1","undefined","undefined","1","right","0","0","0","0","0","0","0","53","NA","0","53","0","0","NA","NA","NA","0","NA","NA","NA","NA","NA","0","NA","53","0","53","0","0","0","0","53","0","0","0","NA","Sun Oct 15 17:00:06 2023","50","The main experiment item","yes","CogPsy_Assignment_With_Instruction.osexp","/home/matt/Documents/VU/MS/Cognitive_Psychology/project","no","mono","no","18","no","white","no","Ok","yes","768","/home/matt/Documents/VU/MS/Cognitive_Psychology/project/subject-0.csv","real","Melodramatic Milgram","4.0.6","photo","Silver strip (security thread);UV hologram;Colors of text;Ink quality","down","NA","right","right","NA","right","6398.6170291900635","3940.9079551696777","NA","119473.58107566833","34299.49593544006","NA","6398.6170291900635","NA","NA","2","real_50","1024","2","48000","-16","experiment","0","even","56303.66802215576","NA","38289.80302810669","106928.45296859741","NA","48291.27097129822","3909.5869064331055","622727.842092514","NA","NA","623240.4220104218","134965.33298492432","3963.2010459899902","NA","NA","NA","788851.804971695","NA","NA","NA","NA","NA","93434.71193313599","NA","623240.6430244446","254439.17393684387","622719.8600769043","NA","134942.43097305298","629710.1728916168","93425.90808868408","629639.6880149841","NA","56292.136907577515","805501.1279582977","NA","New experiment","37","339462.1660709381","54","1024"
