"acc","accept_status","accuracy","average_response_time","avg_rt","background","canvas_backend","checkbox_status","correct","correct_consent_sketchpad","correct_instruction_sketchpad","correct_new_keyboard_response","correct_response","count_age_form","count_checkbox_security_form","count_consent_sketchpad","count_country_logger","count_eurozone_form","count_eurozone_logger","count_experiment","count_fixation_dots","count_getting_started","count_goodbye_sketchpad","count_images_sketchpad","count_information_display_sketchpad","count_instruction_sketchpad","count_new_1_form_base","count_new_1_form_text_input","count_new_1_sketchpad","count_new_2_logger","count_new_4_form_multiple_choice","count_new_form_base","count_new_form_consent","count_new_form_multiple_choice","count_new_form_text_display","count_new_form_text_input","count_new_inline_script","count_new_keyboard_response","count_new_loop","count_new_sequence","count_occupation_form","count_occupation_logger","count_open_security_input_form","count_personal_data_logger","count_response_logger","count_schooling_level_form","count_schooling_logger","count_security_feature_logger","count_welcome","datetime","denomination","description","disable_garbage_collection","experiment_file","experiment_path","font_bold","font_family","font_italic","font_size","font_underline","foreground","form_clicks","form_response","fullscreen","height","logfile","note_type","opensesame_codename","opensesame_version","reason","response","response_consent_sketchpad","response_goodbye_sketchpad","response_information_display_sketchpad","response_instruction_sketchpad","response_new_1_sketchpad","response_new_keyboard_response","response_time","response_time_consent_sketchpad","response_time_goodbye_sketchpad","response_time_information_display_sketchpad","response_time_instruction_sketchpad","response_time_new_1_sketchpad","response_time_new_keyboard_response","response_time_welcome","response_welcome","round_decimals","show","sound_buf_size","sound_channels","sound_freq","sound_sample_size","start","subject_nr","subject_parity","time_age_form","time_checkbox_security_form","time_consent_sketchpad","time_country_logger","time_eurozone_form","time_eurozone_logger","time_experiment","time_fixation_dots","time_getting_started","time_goodbye_sketchpad","time_images_sketchpad","time_information_display_sketchpad","time_instruction_sketchpad","time_new_1_form_base","time_new_1_form_text_input","time_new_1_sketchpad","time_new_2_logger","time_new_4_form_multiple_choice","time_new_form_base","time_new_form_consent","time_new_form_multiple_choice","time_new_form_text_display","time_new_form_text_input","time_new_inline_script","time_new_keyboard_response","time_new_loop","time_new_sequence","time_occupation_form","time_occupation_logger","time_open_security_input_form","time_personal_data_logger","time_response_logger","time_schooling_level_form","time_schooling_logger","time_security_feature_logger","time_welcome","title","total_correct","total_response_time","total_responses","width"
"undefined","NA","undefined","undefined","undefined","#3d3846","psycho","NA","undefined","undefined","undefined","NA","NA","0","0","0","0","0","0","0","NA","NA","0","NA","0","0","NA","NA","NA","0","NA","NA","NA","NA","NA","0","NA","NA","0","NA","0","0","0","0","NA","0","0","0","NA","Sat Oct 28 16:43:15 2023","NA","The main experiment item","yes","CogPsy_Assignment_With_Instruction.osexp","C:/Users/lukas/OneDrive/Dokumente/Uni/VU/P1/Cognitive Psych/Experiment","no","mono","no","18","no","white","no","Yes","yes","768","C:/Users/lukas/OneDrive/Dokumente/Uni/VU/P1/Cognitive Psych/Experiment/logs_with/subject-1.csv","NA","Melodramatic Milgram","4.0.5","NA","Yes","return","NA","NA","return","NA","NA","1627.233300008811","1627.233300008811","NA","NA","3747.4533000058727","NA","NA","NA","NA","2","NA","1024","2","48000","-16","experiment","1","odd","NA","NA","27207.412000003387","NA","NA","30832.11270000902","23399.064099998213","NA","NA","NA","NA","NA","23455.85480000591","NA","NA","NA","NA","NA","NA","NA","NA","NA","NA","NA","NA","NA","NA","NA","NA","NA","NA","NA","NA","NA","NA","NA","New experiment","0","0","0","1024"
"undefined","NA","undefined","undefined","undefined","#3d3846","psycho","NA","undefined","undefined","undefined","NA","NA","0","0","0","0","0","0","0","NA","NA","0","NA","0","0","NA","NA","NA","0","NA","NA","NA","NA","NA","0","NA","NA","0","NA","0","0","0","0","NA","0","0","0","NA","Sat Oct 28 16:43:15 2023","NA","The main experiment item","yes","CogPsy_Assignment_With_Instruction.osexp","C:/Users/lukas/OneDrive/Dokumente/Uni/VU/P1/Cognitive Psych/Experiment","no","mono","no","18","no","white","no","Bachelors","yes","768","C:/Users/lukas/OneDrive/Dokumente/Uni/VU/P1/Cognitive Psych/Experiment/logs_with/subject-1.csv","NA","Melodramatic Milgram","4.0.5","NA","Bachelors","return","NA","NA","return","NA","NA","1627.233300008811","1627.233300008811","NA","NA","3747.4533000058727","NA","NA","NA","NA","2","NA","1024","2","48000","-16","experiment","1","odd","NA","NA","27207.412000003387","NA","NA","30832.11270000902","23399.064099998213","NA","NA","NA","NA","NA","23455.85480000591","NA","NA","NA","NA","NA","NA","NA","NA","NA","NA","NA","NA","NA","NA","NA","NA","NA","NA","NA","NA","32291.470399999525","NA","NA","New experiment","0","0","0","1024"
"undefined","NA","undefined","undefined","undefined","#3d3846","psycho","NA","undefined","undefined","undefined","NA","NA","0","0","0","0","0","0","0","NA","NA","0","NA","0","0","NA","NA","NA","0","NA","NA","NA","NA","NA","0","NA","NA","0","NA","0","0","0","0","NA","0","0","0","NA","Sat Oct 28 16:43:15 2023","NA","The main experiment item","yes","CogPsy_Assignment_With_Instruction.osexp","C:/Users/lukas/OneDrive/Dokumente/Uni/VU/P1/Cognitive Psych/Experiment","no","mono","no","18","no","white","no","22","yes","768","C:/Users/lukas/OneDrive/Dokumente/Uni/VU/P1/Cognitive Psych/Experiment/logs_with/subject-1.csv","NA","Melodramatic Milgram","4.0.5","NA","22","return","NA","NA","return","NA","NA","1627.233300008811","1627.233300008811","NA","NA","3747.4533000058727","NA","NA","NA","NA","2","NA","1024","2","48000","-16","experiment","1","odd","32293.70629999903","NA","27207.412000003387","NA","NA","30832.11270000902","23399.064099998213","NA","NA","NA","NA","NA","23455.85480000591","NA","NA","NA","NA","NA","NA","NA","NA","NA","NA","NA","NA","NA","NA","NA","NA","NA","35668.16420000396","NA","NA","32291.470399999525","NA","NA","New experiment","0","0","0","1024"
"undefined","NA","undefined","undefined","undefined","#3d3846","psycho","NA","undefined","undefined","undefined","NA","NA","0","0","0","0","0","0","0","NA","NA","0","NA","0","0","NA","NA","NA","0","NA","NA","NA","NA","NA","0","NA","NA","0","NA","0","0","0","0","NA","0","0","0","NA","Sat Oct 28 16:43:15 2023","NA","The main experiment item","yes","CogPsy_Assignment_With_Instruction.osexp","C:/Users/lukas/OneDrive/Dokumente/Uni/VU/P1/Cognitive Psych/Experiment","no","mono","no","18","no","white","no","German","yes","768","C:/Users/lukas/OneDrive/Dokumente/Uni/VU/P1/Cognitive Psych/Experiment/logs_with/subject-1.csv","NA","Melodramatic Milgram","4.0.5","NA","German","return","NA","NA","return","NA","NA","1627.233300008811","1627.233300008811","NA","NA","3747.4533000058727","NA","NA","NA","NA","2","NA","1024","2","48000","-16","experiment","1","odd","32293.70629999903","NA","27207.412000003387","43622.581000003265","NA","30832.11270000902","23399.064099998213","NA","NA","NA","NA","NA","23455.85480000591","NA","NA","NA","NA","NA","NA","NA","NA","NA","35670.83190000267","NA","NA","NA","NA","NA","NA","NA","35668.16420000396","NA","NA","32291.470399999525","NA","NA","New experiment","0","0","0","1024"
"undefined","NA","undefined","undefined","undefined","#3d3846","psycho","NA","undefined","undefined","undefined","NA","NA","0","0","0","0","0","0","0","NA","NA","0","NA","0","0","NA","NA","NA","0","NA","NA","NA","NA","NA","0","NA","NA","0","NA","0","0","0","0","NA","0","0","0","NA","Sat Oct 28 16:43:15 2023","NA","The main experiment item","yes","CogPsy_Assignment_With_Instruction.osexp","C:/Users/lukas/OneDrive/Dokumente/Uni/VU/P1/Cognitive Psych/Experiment","no","mono","no","18","no","white","no","Student","yes","768","C:/Users/lukas/OneDrive/Dokumente/Uni/VU/P1/Cognitive Psych/Experiment/logs_with/subject-1.csv","NA","Melodramatic Milgram","4.0.5","NA","Student","return","NA","NA","return","NA","NA","1627.233300008811","1627.233300008811","NA","NA","3747.4533000058727","NA","NA","NA","NA","2","NA","1024","2","48000","-16","experiment","1","odd","32293.70629999903","NA","27207.412000003387","43622.581000003265","NA","30832.11270000902","23399.064099998213","NA","NA","NA","NA","NA","23455.85480000591","NA","NA","NA","NA","NA","NA","NA","NA","NA","35670.83190000267","NA","NA","NA","NA","NA","52351.35029999947","NA","35668.16420000396","NA","NA","32291.470399999525","NA","NA","New experiment","0","0","0","1024"
"0","NA","0","5268","5268","#3d3846","psycho","NA","0","undefined","undefined","0","left","0","0","0","0","0","0","0","0","NA","0","0","0","0","NA","NA","NA","0","NA","NA","NA","NA","NA","0","NA","0","0","0","0","0","0","0","0","0","0","0","NA","Sat Oct 28 16:43:15 2023","50","The main experiment item","yes","CogPsy_Assignment_With_Instruction.osexp","C:/Users/lukas/OneDrive/Dokumente/Uni/VU/P1/Cognitive Psych/Experiment","no","mono","no","18","no","white","no","Student","yes","768","C:/Users/lukas/OneDrive/Dokumente/Uni/VU/P1/Cognitive Psych/Experiment/logs_with/subject-1.csv","fake","Melodramatic Milgram","4.0.5","BadInk","right","return","NA","return","return","NA","right","5268.196999997599","1627.233300008811","NA","118610.93599999731","3747.4533000058727","NA","5268.196999997599","NA","NA","2","fake_2_50","1024","2","48000","-16","experiment","1","odd","32293.70629999903","NA","27207.412000003387","43622.581000003265","NA","30832.11270000902","23399.064099998213","171263.21440000902","NA","NA","171768.2543999981","52367.60940001113","23455.85480000591","NA","NA","NA","NA","NA","NA","NA","NA","NA","35670.83190000267","NA","171768.44630000414","170979.06180001155","171257.30480000493","NA","52351.35029999947","NA","35668.16420000396","177036.99760000745","NA","32291.470399999525","NA","NA","New experiment","0","5268.196999997599","1","1024"
"0","NA","0","7200","7200","#3d3846","psycho","NA","0","undefined","undefined","0","left","0","0","0","0","0","0","0","1","NA","0","1","0","0","NA","NA","NA","0","NA","NA","NA","NA","NA","0","NA","1","0","1","0","0","0","0","1","0","0","0","NA","Sat Oct 28 16:43:15 2023","20","The main experiment item","yes","CogPsy_Assignment_With_Instruction.osexp","C:/Users/lukas/OneDrive/Dokumente/Uni/VU/P1/Cognitive Psych/Experiment","no","mono","no","18","no","white","no","Student","yes","768","C:/Users/lukas/OneDrive/Dokumente/Uni/VU/P1/Cognitive Psych/Experiment/logs_with/subject-1.csv","fake","Melodramatic Milgram","4.0.5","silver_strip","right","return","NA","return","return","NA","right","9132.418400011375","1627.233300008811","NA","118610.93599999731","3747.4533000058727","NA","9132.418400011375","NA","NA","2","fake_2_20","1024","2","48000","-16","experiment","1","odd","32293.70629999903","NA","27207.412000003387","43622.581000003265","NA","30832.11270000902","23399.064099998213","177376.8390000041","NA","NA","177881.31050000084","52367.60940001113","23455.85480000591","NA","NA","NA","NA","NA","NA","NA","NA","NA","35670.83190000267","NA","177881.56249999884","170979.06180001155","177371.48070000694","NA","52351.35029999947","NA","35668.16420000396","187014.3659000023","NA","32291.470399999525","NA","NA","New experiment","0","14400.615400008974","2","1024"
"33","NA","33","5914","5914","#3d3846","psycho","NA","1","undefined","undefined","1","left","0","0","0","0","0","0","0","2","NA","0","2","0","0","NA","NA","NA","0","NA","NA","NA","NA","NA","0","NA","2","0","2","0","0","0","0","2","0","0","0","NA","Sat Oct 28 16:43:15 2023","50","The main experiment item","yes","CogPsy_Assignment_With_Instruction.osexp","C:/Users/lukas/OneDrive/Dokumente/Uni/VU/P1/Cognitive Psych/Experiment","no","mono","no","18","no","white","no","Student","yes","768","C:/Users/lukas/OneDrive/Dokumente/Uni/VU/P1/Cognitive Psych/Experiment/logs_with/subject-1.csv","fake","Melodramatic Milgram","4.0.5","PurpleDenomination3","left","return","NA","return","return","NA","left","3344.0791000030003","1627.233300008811","NA","118610.93599999731","3747.4533000058727","NA","3344.0791000030003","NA","NA","2","fake_2_50","1024","2","48000","-16","experiment","1","odd","32293.70629999903","NA","27207.412000003387","43622.581000003265","NA","30832.11270000902","23399.064099998213","187216.57270001015","NA","NA","187721.24710000935","52367.60940001113","23455.85480000591","NA","NA","NA","NA","NA","NA","NA","NA","NA","35670.83190000267","NA","187721.4299000043","170979.06180001155","187211.11910000036","NA","52351.35029999947","NA","35668.16420000396","191066.11030000204","NA","32291.470399999525","NA","NA","New experiment","1","17744.694500011974","3","1024"
"25","NA","25","5147","5147","#3d3846","psycho","NA","0","undefined","undefined","0","left","0","0","0","0","0","0","0","3","NA","0","3","0","0","NA","NA","NA","0","NA","NA","NA","NA","NA","0","NA","3","0","3","0","0","0","0","3","0","0","0","NA","Sat Oct 28 16:43:15 2023","20","The main experiment item","yes","CogPsy_Assignment_With_Instruction.osexp","C:/Users/lukas/OneDrive/Dokumente/Uni/VU/P1/Cognitive Psych/Experiment","no","mono","no","18","no","white","no","Student","yes","768","C:/Users/lukas/OneDrive/Dokumente/Uni/VU/P1/Cognitive Psych/Experiment/logs_with/subject-1.csv","fake","Melodramatic Milgram","4.0.5","DullHologram2","right","return","NA","return","return","NA","right","2846.3275999965845","1627.233300008811","NA","118610.93599999731","3747.4533000058727","NA","2846.3275999965845","NA","NA","2","fake_20","1024","2","48000","-16","experiment","1","odd","32293.70629999903","NA","27207.412000003387","43622.581000003265","NA","30832.11270000902","23399.064099998213","191261.3282000093","NA","NA","191766.35990000796","52367.60940001113","23455.85480000591","NA","NA","NA","NA","NA","NA","NA","NA","NA","35670.83190000267","NA","191766.6370000079","170979.06180001155","191256.55330000154","NA","52351.35029999947","NA","35668.16420000396","194613.37099999946","NA","32291.470399999525","NA","NA","New experiment","1","20591.02210000856","4","1024"
"40","NA","40","4777","4777","#3d3846","psycho","NA","1","undefined","undefined","1","right","0","0","0","0","0","0","0","4","NA","0","4","0","0","NA","NA","NA","0","NA","NA","NA","NA","NA","0","NA","4","0","4","0","0","0","0","4","0","0","0","NA","Sat Oct 28 16:43:15 2023","50","The main experiment item","yes","CogPsy_Assignment_With_Instruction.osexp","C:/Users/lukas/OneDrive/Dokumente/Uni/VU/P1/Cognitive Psych/Experiment","no","mono","no","18","no","white","no","Student","yes","768","C:/Users/lukas/OneDrive/Dokumente/Uni/VU/P1/Cognitive Psych/Experiment/logs_with/subject-1.csv","real","Melodramatic Milgram","4.0.5","photo_2","right","return","NA","return","return","NA","right","3294.1388999897754","1627.233300008811","NA","118610.93599999731","3747.4533000058727","NA","3294.1388999897754","NA","NA","2","real_50","1024","2","48000","-16","experiment","1","odd","32293.70629999903","NA","27207.412000003387","43622.581000003265","NA","30832.11270000902","23399.064099998213","194785.40940000676","NA","NA","195290.51120000076","52367.60940001113","23455.85480000591","NA","NA","NA","NA","NA","NA","NA","NA","NA","35670.83190000267","NA","195290.8720000123","170979.06180001155","194780.27630000724","NA","52351.35029999947","NA","35668.16420000396","198585.48970000993","NA","32291.470399999525","NA","NA","New experiment","2","23885.160999998334","5","1024"
"33","NA","33","6330","6330","#3d3846","psycho","NA","0","undefined","undefined","0","right","0","0","0","0","0","0","0","5","NA","0","5","0","0","NA","NA","NA","0","NA","NA","NA","NA","NA","0","NA","5","0","5","0","0","0","0","5","0","0","0","NA","Sat Oct 28 16:43:15 2023","20","The main experiment item","yes","CogPsy_Assignment_With_Instruction.osexp","C:/Users/lukas/OneDrive/Dokumente/Uni/VU/P1/Cognitive Psych/Experiment","no","mono","no","18","no","white","no","Student","yes","768","C:/Users/lukas/OneDrive/Dokumente/Uni/VU/P1/Cognitive Psych/Experiment/logs_with/subject-1.csv","real","Melodramatic Milgram","4.0.5","photo","left","return","NA","return","return","NA","left","14100.661200005561","1627.233300008811","NA","118610.93599999731","3747.4533000058727","NA","14100.661200005561","NA","NA","2","real_20","1024","2","48000","-16","experiment","1","odd","32293.70629999903","NA","27207.412000003387","43622.581000003265","NA","30832.11270000902","23399.064099998213","198801.21289999806","NA","NA","199308.96020001092","52367.60940001113","23455.85480000591","NA","NA","NA","NA","NA","NA","NA","NA","NA","35670.83190000267","NA","199309.1521000024","170979.06180001155","198795.81780001172","NA","52351.35029999947","NA","35668.16420000396","213410.19360000791","NA","32291.470399999525","NA","NA","New experiment","2","37985.822200003895","6","1024"
"28","NA","28","5913","5913","#3d3846","psycho","NA","0","undefined","undefined","0","left","0","0","0","0","0","0","0","6","NA","0","6","0","0","NA","NA","NA","0","NA","NA","NA","NA","NA","0","NA","6","0","6","0","0","0","0","6","0","0","0","NA","Sat Oct 28 16:43:15 2023","50","The main experiment item","yes","CogPsy_Assignment_With_Instruction.osexp","C:/Users/lukas/OneDrive/Dokumente/Uni/VU/P1/Cognitive Psych/Experiment","no","mono","no","18","no","white","no","Student","yes","768","C:/Users/lukas/OneDrive/Dokumente/Uni/VU/P1/Cognitive Psych/Experiment/logs_with/subject-1.csv","fake","Melodramatic Milgram","4.0.5","silver_strip","right","return","NA","return","return","NA","right","3410.877200003597","1627.233300008811","NA","118610.93599999731","3747.4533000058727","NA","3410.877200003597","NA","NA","2","fake_2_50","1024","2","48000","-16","experiment","1","odd","32293.70629999903","NA","27207.412000003387","43622.581000003265","NA","30832.11270000902","23399.064099998213","213593.43790001003","NA","NA","214098.24089999893","52367.60940001113","23455.85480000591","NA","NA","NA","NA","NA","NA","NA","NA","NA","35670.83190000267","NA","214098.4654000058","170979.06180001155","213586.21980001044","NA","52351.35029999947","NA","35668.16420000396","217509.73260001047","NA","32291.470399999525","NA","NA","New experiment","2","41396.69940000749","7","1024"
"25","NA","25","5459","5459","#3d3846","psycho","NA","0","undefined","undefined","0","left","0","0","0","0","0","0","0","7","NA","0","7","0","0","NA","NA","NA","0","NA","NA","NA","NA","NA","0","NA","7","0","7","0","0","0","0","7","0","0","0","NA","Sat Oct 28 16:43:15 2023","50","The main experiment item","yes","CogPsy_Assignment_With_Instruction.osexp","C:/Users/lukas/OneDrive/Dokumente/Uni/VU/P1/Cognitive Psych/Experiment","no","mono","no","18","no","white","no","Student","yes","768","C:/Users/lukas/OneDrive/Dokumente/Uni/VU/P1/Cognitive Psych/Experiment/logs_with/subject-1.csv","fake","Melodramatic Milgram","4.0.5","BadInk","right","return","NA","return","return","NA","right","2278.7278999894625","1627.233300008811","NA","118610.93599999731","3747.4533000058727","NA","2278.7278999894625","NA","NA","2","fake_2_50","1024","2","48000","-16","experiment","1","odd","32293.70629999903","NA","27207.412000003387","43622.581000003265","NA","30832.11270000902","23399.064099998213","217654.88710001227","NA","NA","218160.45590001158","52367.60940001113","23455.85480000591","NA","NA","NA","NA","NA","NA","NA","NA","NA","35670.83190000267","NA","218160.69060000882","170979.06180001155","217650.19530001155","NA","52351.35029999947","NA","35668.16420000396","220440.19839999964","NA","32291.470399999525","NA","NA","New experiment","2","43675.427299996954","8","1024"
"22","NA","22","5043","5043","#3d3846","psycho","NA","0","undefined","undefined","0","left","0","0","0","0","0","0","0","8","NA","0","8","0","0","NA","NA","NA","0","NA","NA","NA","NA","NA","0","NA","8","0","8","0","0","0","0","8","0","0","0","NA","Sat Oct 28 16:43:15 2023","50","The main experiment item","yes","CogPsy_Assignment_With_Instruction.osexp","C:/Users/lukas/OneDrive/Dokumente/Uni/VU/P1/Cognitive Psych/Experiment","no","mono","no","18","no","white","no","Student","yes","768","C:/Users/lukas/OneDrive/Dokumente/Uni/VU/P1/Cognitive Psych/Experiment/logs_with/subject-1.csv","fake","Melodramatic Milgram","4.0.5","bottom_left","right","return","NA","return","return","NA","right","1715.168900002027","1627.233300008811","NA","118610.93599999731","3747.4533000058727","NA","1715.168900002027","NA","NA","2","fake_1_50","1024","2","48000","-16","experiment","1","odd","32293.70629999903","NA","27207.412000003387","43622.581000003265","NA","30832.11270000902","23399.064099998213","220590.78779999982","NA","NA","221096.6058000049","52367.60940001113","23455.85480000591","NA","NA","NA","NA","NA","NA","NA","NA","NA","35670.83190000267","NA","221096.83640000003","170979.06180001155","220586.17880000384","NA","52351.35029999947","NA","35668.16420000396","222812.83450000046","NA","32291.470399999525","NA","NA","New experiment","2","45390.59619999898","9","1024"
"20","NA","20","4662","4662","#3d3846","psycho","NA","0","undefined","undefined","0","right","0","0","0","0","0","0","0","9","NA","0","9","0","0","NA","NA","NA","0","NA","NA","NA","NA","NA","0","NA","9","0","9","0","0","0","0","9","0","0","0","NA","Sat Oct 28 16:43:15 2023","20","The main experiment item","yes","CogPsy_Assignment_With_Instruction.osexp","C:/Users/lukas/OneDrive/Dokumente/Uni/VU/P1/Cognitive Psych/Experiment","no","mono","no","18","no","white","no","Student","yes","768","C:/Users/lukas/OneDrive/Dokumente/Uni/VU/P1/Cognitive Psych/Experiment/logs_with/subject-1.csv","real","Melodramatic Milgram","4.0.5","photo","left","return","NA","return","return","NA","left","1232.1089999895776","1627.233300008811","NA","118610.93599999731","3747.4533000058727","NA","1232.1089999895776","NA","NA","2","real_20","1024","2","48000","-16","experiment","1","odd","32293.70629999903","NA","27207.412000003387","43622.581000003265","NA","30832.11270000902","23399.064099998213","222989.93160000828","NA","NA","223495.32630000613","52367.60940001113","23455.85480000591","NA","NA","NA","NA","NA","NA","NA","NA","NA","35670.83190000267","NA","223495.61560001166","170979.06180001155","222984.51330000535","NA","52351.35029999947","NA","35668.16420000396","224728.35630000918","NA","32291.470399999525","NA","NA","New experiment","2","46622.70519998856","10","1024"
"27","NA","27","4347","4347","#3d3846","psycho","NA","1","undefined","undefined","1","left","0","0","0","0","0","0","0","10","NA","0","10","0","0","NA","NA","NA","0","NA","NA","NA","NA","NA","0","NA","10","0","10","0","0","0","0","10","0","0","0","NA","Sat Oct 28 16:43:15 2023","50","The main experiment item","yes","CogPsy_Assignment_With_Instruction.osexp","C:/Users/lukas/OneDrive/Dokumente/Uni/VU/P1/Cognitive Psych/Experiment","no","mono","no","18","no","white","no","Student","yes","768","C:/Users/lukas/OneDrive/Dokumente/Uni/VU/P1/Cognitive Psych/Experiment/logs_with/subject-1.csv","fake","Melodramatic Milgram","4.0.5","PurpleDenomination","left","return","NA","return","return","NA","left","1203.7979000015184","1627.233300008811","NA","118610.93599999731","3747.4533000058727","NA","1203.7979000015184","NA","NA","2","fake_2_50","1024","2","48000","-16","experiment","1","odd","32293.70629999903","NA","27207.412000003387","43622.581000003265","NA","30832.11270000902","23399.064099998213","224932.35660000937","NA","NA","225438.81469999906","52367.60940001113","23455.85480000591","NA","NA","NA","NA","NA","NA","NA","NA","NA","35670.83190000267","NA","225439.0018999984","170979.06180001155","224927.6869000023","NA","52351.35029999947","NA","35668.16420000396","226643.22150000953","NA","32291.470399999525","NA","NA","New experiment","3","47826.50309999008","11","1024"
"33","NA","33","4107","4107","#3d3846","psycho","NA","1","undefined","undefined","1","left","0","0","0","0","0","0","0","11","NA","0","11","0","0","NA","NA","NA","0","NA","NA","NA","NA","NA","0","NA","11","0","11","0","0","0","0","11","0","0","0","NA","Sat Oct 28 16:43:15 2023","50","The main experiment item","yes","CogPsy_Assignment_With_Instruction.osexp","C:/Users/lukas/OneDrive/Dokumente/Uni/VU/P1/Cognitive Psych/Experiment","no","mono","no","18","no","white","no","Student","yes","768","C:/Users/lukas/OneDrive/Dokumente/Uni/VU/P1/Cognitive Psych/Experiment/logs_with/subject-1.csv","fake","Melodramatic Milgram","4.0.5","GreyDenomination","left","return","NA","return","return","NA","left","1458.5455999913393","1627.233300008811","NA","118610.93599999731","3747.4533000058727","NA","1458.5455999913393","NA","NA","2","fake_2_50","1024","2","48000","-16","experiment","1","odd","32293.70629999903","NA","27207.412000003387","43622.581000003265","NA","30832.11270000902","23399.064099998213","226814.94000001112","NA","NA","227323.38719999825","52367.60940001113","23455.85480000591","NA","NA","NA","NA","NA","NA","NA","NA","NA","35670.83190000267","NA","227323.71340000827","170979.06180001155","226809.95429999894","NA","52351.35029999947","NA","35668.16420000396","228782.72970000398","NA","32291.470399999525","NA","NA","New experiment","4","49285.04869998142","12","1024"
"38","NA","38","4217","4217","#3d3846","psycho","NA","1","undefined","undefined","1","left","0","0","0","0","0","0","0","12","NA","0","12","0","0","NA","NA","NA","0","NA","NA","NA","NA","NA","0","NA","12","0","12","0","0","0","0","12","0","0","0","NA","Sat Oct 28 16:43:15 2023","20","The main experiment item","yes","CogPsy_Assignment_With_Instruction.osexp","C:/Users/lukas/OneDrive/Dokumente/Uni/VU/P1/Cognitive Psych/Experiment","no","mono","no","18","no","white","no","Student","yes","768","C:/Users/lukas/OneDrive/Dokumente/Uni/VU/P1/Cognitive Psych/Experiment/logs_with/subject-1.csv","fake","Melodramatic Milgram","4.0.5","BadInk2","left","return","NA","return","return","NA","left","5543.9531999873","1627.233300008811","NA","118610.93599999731","3747.4533000058727","NA","5543.9531999873","NA","NA","2","fake_20","1024","2","48000","-16","experiment","1","odd","32293.70629999903","NA","27207.412000003387","43622.581000003265","NA","30832.11270000902","23399.064099998213","229010.5542000092","NA","NA","229516.6503000073","52367.60940001113","23455.85480000591","NA","NA","NA","NA","NA","NA","NA","NA","NA","35670.83190000267","NA","229516.91460001166","170979.06180001155","229005.75760001084","NA","52351.35029999947","NA","35668.16420000396","235061.37599999784","NA","32291.470399999525","NA","NA","New experiment","5","54829.001899968716","13","1024"
"35","NA","35","4418","4418","#3d3846","psycho","NA","0","undefined","undefined","0","right","0","0","0","0","0","0","0","13","NA","0","13","0","0","NA","NA","NA","0","NA","NA","NA","NA","NA","0","NA","13","0","13","0","0","0","0","13","0","0","0","NA","Sat Oct 28 16:43:15 2023","50","The main experiment item","yes","CogPsy_Assignment_With_Instruction.osexp","C:/Users/lukas/OneDrive/Dokumente/Uni/VU/P1/Cognitive Psych/Experiment","no","mono","no","18","no","white","no","Student","yes","768","C:/Users/lukas/OneDrive/Dokumente/Uni/VU/P1/Cognitive Psych/Experiment/logs_with/subject-1.csv","real","Melodramatic Milgram","4.0.5","genuine","left","return","NA","return","return","NA","left","7024.859400000423","1627.233300008811","NA","118610.93599999731","3747.4533000058727","NA","7024.859400000423","NA","NA","2","real_50","1024","2","48000","-16","experiment","1","odd","32293.70629999903","NA","27207.412000003387","43622.581000003265","NA","30832.11270000902","23399.064099998213","235229.35490000236","NA","NA","235734.30380001082","52367.60940001113","23455.85480000591","NA","NA","NA","NA","NA","NA","NA","NA","NA","35670.83190000267","NA","235734.49420000543","170979.06180001155","235221.84920001018","NA","52351.35029999947","NA","35668.16420000396","242759.75690000632","NA","32291.470399999525","NA","NA","New experiment","5","61853.86129996914","14","1024"
"40","NA","40","4252","4252","#3d3846","psycho","NA","1","undefined","undefined","1","left","0","0","0","0","0","0","0","14","NA","0","14","0","0","NA","NA","NA","0","NA","NA","NA","NA","NA","0","NA","14","0","14","0","0","0","0","14","0","0","0","NA","Sat Oct 28 16:43:15 2023","20","The main experiment item","yes","CogPsy_Assignment_With_Instruction.osexp","C:/Users/lukas/OneDrive/Dokumente/Uni/VU/P1/Cognitive Psych/Experiment","no","mono","no","18","no","white","no","Student","yes","768","C:/Users/lukas/OneDrive/Dokumente/Uni/VU/P1/Cognitive Psych/Experiment/logs_with/subject-1.csv","fake","Melodramatic Milgram","4.0.5","PurpleDenomination","left","return","NA","return","return","NA","left","1939.236100006383","1627.233300008811","NA","118610.93599999731","3747.4533000058727","NA","1939.236100006383","NA","NA","2","fake_20","1024","2","48000","-16","experiment","1","odd","32293.70629999903","NA","27207.412000003387","43622.581000003265","NA","30832.11270000902","23399.064099998213","242967.3049000121","NA","NA","243471.90119999868","52367.60940001113","23455.85480000591","NA","NA","NA","NA","NA","NA","NA","NA","NA","35670.83190000267","NA","243472.21300000092","170979.06180001155","242962.18149999913","NA","52351.35029999947","NA","35668.16420000396","245411.93380000186","NA","32291.470399999525","NA","NA","New experiment","6","63793.09739997552","15","1024"
"37","NA","37","4083","4083","#3d3846","psycho","NA","0","undefined","undefined","0","right","0","0","0","0","0","0","0","15","NA","0","15","0","0","NA","NA","NA","0","NA","NA","NA","NA","NA","0","NA","15","0","15","0","0","0","0","15","0","0","0","NA","Sat Oct 28 16:43:15 2023","20","The main experiment item","yes","CogPsy_Assignment_With_Instruction.osexp","C:/Users/lukas/OneDrive/Dokumente/Uni/VU/P1/Cognitive Psych/Experiment","no","mono","no","18","no","white","no","Student","yes","768","C:/Users/lukas/OneDrive/Dokumente/Uni/VU/P1/Cognitive Psych/Experiment/logs_with/subject-1.csv","real","Melodramatic Milgram","4.0.5","photo","left","return","NA","return","return","NA","left","1543.7855999916792","1627.233300008811","NA","118610.93599999731","3747.4533000058727","NA","1543.7855999916792","NA","NA","2","real_20","1024","2","48000","-16","experiment","1","odd","32293.70629999903","NA","27207.412000003387","43622.581000003265","NA","30832.11270000902","23399.064099998213","245632.4362000014","NA","NA","246137.19560000754","52367.60940001113","23455.85480000591","NA","NA","NA","NA","NA","NA","NA","NA","NA","35670.83190000267","NA","246137.43640000757","170979.06180001155","245626.37820000236","NA","52351.35029999947","NA","35668.16420000396","247681.65130000853","NA","32291.470399999525","NA","NA","New experiment","6","65336.8829999672","16","1024"
"35","NA","35","3982","3982","#3d3846","psycho","NA","0","undefined","undefined","0","right","0","0","0","0","0","0","0","16","NA","0","16","0","0","NA","NA","NA","0","NA","NA","NA","NA","NA","0","NA","16","0","16","0","0","0","0","16","0","0","0","NA","Sat Oct 28 16:43:15 2023","50","The main experiment item","yes","CogPsy_Assignment_With_Instruction.osexp","C:/Users/lukas/OneDrive/Dokumente/Uni/VU/P1/Cognitive Psych/Experiment","no","mono","no","18","no","white","no","Student","yes","768","C:/Users/lukas/OneDrive/Dokumente/Uni/VU/P1/Cognitive Psych/Experiment/logs_with/subject-1.csv","real","Melodramatic Milgram","4.0.5","photo","left","return","NA","return","return","NA","left","2372.4687000067206","1627.233300008811","NA","118610.93599999731","3747.4533000058727","NA","2372.4687000067206","NA","NA","2","real_50","1024","2","48000","-16","experiment","1","odd","32293.70629999903","NA","27207.412000003387","43622.581000003265","NA","30832.11270000902","23399.064099998213","247849.3954000005","NA","NA","248356.38470000413","52367.60940001113","23455.85480000591","NA","NA","NA","NA","NA","NA","NA","NA","NA","35670.83190000267","NA","248356.72100000374","170979.06180001155","247842.78260001156","NA","52351.35029999947","NA","35668.16420000396","250729.77230000834","NA","32291.470399999525","NA","NA","New experiment","6","67709.35169997392","17","1024"
"38","NA","38","3868","3868","#3d3846","psycho","NA","1","undefined","undefined","1","left","0","0","0","0","0","0","0","17","NA","0","17","0","0","NA","NA","NA","0","NA","NA","NA","NA","NA","0","NA","17","0","17","0","0","0","0","17","0","0","0","NA","Sat Oct 28 16:43:15 2023","20","The main experiment item","yes","CogPsy_Assignment_With_Instruction.osexp","C:/Users/lukas/OneDrive/Dokumente/Uni/VU/P1/Cognitive Psych/Experiment","no","mono","no","18","no","white","no","Student","yes","768","C:/Users/lukas/OneDrive/Dokumente/Uni/VU/P1/Cognitive Psych/Experiment/logs_with/subject-1.csv","fake","Melodramatic Milgram","4.0.5","DullHologram","left","return","NA","return","return","NA","left","1926.3788999960525","1627.233300008811","NA","118610.93599999731","3747.4533000058727","NA","1926.3788999960525","NA","NA","2","fake_20","1024","2","48000","-16","experiment","1","odd","32293.70629999903","NA","27207.412000003387","43622.581000003265","NA","30832.11270000902","23399.064099998213","250881.3988000038","NA","NA","251388.7270000123","52367.60940001113","23455.85480000591","NA","NA","NA","NA","NA","NA","NA","NA","NA","35670.83190000267","NA","251389.027600002","170979.06180001155","250877.00540000515","NA","52351.35029999947","NA","35668.16420000396","253315.86750000133","NA","32291.470399999525","NA","NA","New experiment","7","69635.73059996997","18","1024"
"42","NA","42","3743","3743","#3d3846","psycho","NA","1","undefined","undefined","1","left","0","0","0","0","0","0","0","18","NA","0","18","0","0","NA","NA","NA","0","NA","NA","NA","NA","NA","0","NA","18","0","18","0","0","0","0","18","0","0","0","NA","Sat Oct 28 16:43:15 2023","50","The main experiment item","yes","CogPsy_Assignment_With_Instruction.osexp","C:/Users/lukas/OneDrive/Dokumente/Uni/VU/P1/Cognitive Psych/Experiment","no","mono","no","18","no","white","no","Student","yes","768","C:/Users/lukas/OneDrive/Dokumente/Uni/VU/P1/Cognitive Psych/Experiment/logs_with/subject-1.csv","fake","Melodramatic Milgram","4.0.5","NoNumOnThread_BlurryWatermark","left","return","NA","return","return","NA","left","1488.4789999923669","1627.233300008811","NA","118610.93599999731","3747.4533000058727","NA","1488.4789999923669","NA","NA","2","fake_2_50","1024","2","48000","-16","experiment","1","odd","32293.70629999903","NA","27207.412000003387","43622.581000003265","NA","30832.11270000902","23399.064099998213","253505.3295000107","NA","NA","254010.40340001055","52367.60940001113","23455.85480000591","NA","NA","NA","NA","NA","NA","NA","NA","NA","35670.83190000267","NA","254010.62100000854","170979.06180001155","253499.3247000093","NA","52351.35029999947","NA","35668.16420000396","255499.5243000012","NA","32291.470399999525","NA","NA","New experiment","8","71124.20959996234","19","1024"
"40","NA","40","3616","3616","#3d3846","psycho","NA","0","undefined","undefined","0","left","0","0","0","0","0","0","0","19","NA","0","19","0","0","NA","NA","NA","0","NA","NA","NA","NA","NA","0","NA","19","0","19","0","0","0","0","19","0","0","0","NA","Sat Oct 28 16:43:15 2023","50","The main experiment item","yes","CogPsy_Assignment_With_Instruction.osexp","C:/Users/lukas/OneDrive/Dokumente/Uni/VU/P1/Cognitive Psych/Experiment","no","mono","no","18","no","white","no","Student","yes","768","C:/Users/lukas/OneDrive/Dokumente/Uni/VU/P1/Cognitive Psych/Experiment/logs_with/subject-1.csv","fake","Melodramatic Milgram","4.0.5","GreyDenomination","right","return","NA","return","return","NA","right","1204.4844000047306","1627.233300008811","NA","118610.93599999731","3747.4533000058727","NA","1204.4844000047306","NA","NA","2","fake_2_50","1024","2","48000","-16","experiment","1","odd","32293.70629999903","NA","27207.412000003387","43622.581000003265","NA","30832.11270000902","23399.064099998213","255644.28580000822","NA","NA","256150.47310000227","52367.60940001113","23455.85480000591","NA","NA","NA","NA","NA","NA","NA","NA","NA","35670.83190000267","NA","256150.66820000357","170979.06180001155","255639.62520001223","NA","52351.35029999947","NA","35668.16420000396","257355.9677000012","NA","32291.470399999525","NA","NA","New experiment","8","72328.69399996707","20","1024"
"42","NA","42","3506","3506","#3d3846","psycho","NA","1","undefined","undefined","1","right","0","0","0","0","0","0","0","20","NA","0","20","0","0","NA","NA","NA","0","NA","NA","NA","NA","NA","0","NA","20","0","20","0","0","0","0","20","0","0","0","NA","Sat Oct 28 16:43:15 2023","50","The main experiment item","yes","CogPsy_Assignment_With_Instruction.osexp","C:/Users/lukas/OneDrive/Dokumente/Uni/VU/P1/Cognitive Psych/Experiment","no","mono","no","18","no","white","no","Student","yes","768","C:/Users/lukas/OneDrive/Dokumente/Uni/VU/P1/Cognitive Psych/Experiment/logs_with/subject-1.csv","real","Melodramatic Milgram","4.0.5","photo_2","right","return","NA","return","return","NA","right","1309.6657999994932","1627.233300008811","NA","118610.93599999731","3747.4533000058727","NA","1309.6657999994932","NA","NA","2","real_50","1024","2","48000","-16","experiment","1","odd","32293.70629999903","NA","27207.412000003387","43622.581000003265","NA","30832.11270000902","23399.064099998213","257549.38419999962","NA","NA","258054.23400001018","52367.60940001113","23455.85480000591","NA","NA","NA","NA","NA","NA","NA","NA","NA","35670.83190000267","NA","258054.4307000091","170979.06180001155","257544.50630000792","NA","52351.35029999947","NA","35668.16420000396","259364.9718000088","NA","32291.470399999525","NA","NA","New experiment","9","73638.35979996657","21","1024"
"45","NA","45","3433","3433","#3d3846","psycho","NA","1","undefined","undefined","1","right","0","0","0","0","0","0","0","21","NA","0","21","0","0","NA","NA","NA","0","NA","NA","NA","NA","NA","0","NA","21","0","21","0","0","0","0","21","0","0","0","NA","Sat Oct 28 16:43:15 2023","50","The main experiment item","yes","CogPsy_Assignment_With_Instruction.osexp","C:/Users/lukas/OneDrive/Dokumente/Uni/VU/P1/Cognitive Psych/Experiment","no","mono","no","18","no","white","no","Student","yes","768","C:/Users/lukas/OneDrive/Dokumente/Uni/VU/P1/Cognitive Psych/Experiment/logs_with/subject-1.csv","real","Melodramatic Milgram","4.0.5","photo","right","return","NA","return","return","NA","right","1891.1145000020042","1627.233300008811","NA","118610.93599999731","3747.4533000058727","NA","1891.1145000020042","NA","NA","2","real_50","1024","2","48000","-16","experiment","1","odd","32293.70629999903","NA","27207.412000003387","43622.581000003265","NA","30832.11270000902","23399.064099998213","259551.0362000059","NA","NA","260055.7509000064","52367.60940001113","23455.85480000591","NA","NA","NA","NA","NA","NA","NA","NA","NA","35670.83190000267","NA","260056.14310000965","170979.06180001155","259546.24320000585","NA","52351.35029999947","NA","35668.16420000396","261947.84639999853","NA","32291.470399999525","NA","NA","New experiment","10","75529.47429996857","22","1024"
"43","NA","43","3318","3318","#3d3846","psycho","NA","0","undefined","undefined","0","left","0","0","0","0","0","0","0","22","NA","0","22","0","0","NA","NA","NA","0","NA","NA","NA","NA","NA","0","NA","22","0","22","0","0","0","0","22","0","0","0","NA","Sat Oct 28 16:43:15 2023","20","The main experiment item","yes","CogPsy_Assignment_With_Instruction.osexp","C:/Users/lukas/OneDrive/Dokumente/Uni/VU/P1/Cognitive Psych/Experiment","no","mono","no","18","no","white","no","Student","yes","768","C:/Users/lukas/OneDrive/Dokumente/Uni/VU/P1/Cognitive Psych/Experiment/logs_with/subject-1.csv","fake","Melodramatic Milgram","4.0.5","BadInk","right","return","NA","return","return","NA","right","805.8811999944737","1627.233300008811","NA","118610.93599999731","3747.4533000058727","NA","805.8811999944737","NA","NA","2","fake_20","1024","2","48000","-16","experiment","1","odd","32293.70629999903","NA","27207.412000003387","43622.581000003265","NA","30832.11270000902","23399.064099998213","262100.90720000153","NA","NA","262606.01699999825","52367.60940001113","23455.85480000591","NA","NA","NA","NA","NA","NA","NA","NA","NA","35670.83190000267","NA","262606.37910000514","170979.06180001155","262096.33500000928","NA","52351.35029999947","NA","35668.16420000396","263412.7470000094","NA","32291.470399999525","NA","NA","New experiment","10","76335.35549996304","23","1024"
"45","NA","45","3222","3222","#3d3846","psycho","NA","1","undefined","undefined","1","right","0","0","0","0","0","0","0","23","NA","0","23","0","0","NA","NA","NA","0","NA","NA","NA","NA","NA","0","NA","23","0","23","0","0","0","0","23","0","0","0","NA","Sat Oct 28 16:43:15 2023","50","The main experiment item","yes","CogPsy_Assignment_With_Instruction.osexp","C:/Users/lukas/OneDrive/Dokumente/Uni/VU/P1/Cognitive Psych/Experiment","no","mono","no","18","no","white","no","Student","yes","768","C:/Users/lukas/OneDrive/Dokumente/Uni/VU/P1/Cognitive Psych/Experiment/logs_with/subject-1.csv","real","Melodramatic Milgram","4.0.5","photo_2","right","return","NA","return","return","NA","right","1010.8848999952897","1627.233300008811","NA","118610.93599999731","3747.4533000058727","NA","1010.8848999952897","NA","NA","2","real_50","1024","2","48000","-16","experiment","1","odd","32293.70629999903","NA","27207.412000003387","43622.581000003265","NA","30832.11270000902","23399.064099998213","263553.8790999999","NA","NA","264060.87800000387","52367.60940001113","23455.85480000591","NA","NA","NA","NA","NA","NA","NA","NA","NA","35670.83190000267","NA","264061.0874000122","170979.06180001155","263547.9185000004","NA","52351.35029999947","NA","35668.16420000396","265072.66060000984","NA","32291.470399999525","NA","NA","New experiment","11","77346.24039995833","24","1024"
"48","NA","48","3148","3148","#3d3846","psycho","NA","1","undefined","undefined","1","right","0","0","0","0","0","0","0","24","NA","0","24","0","0","NA","NA","NA","0","NA","NA","NA","NA","NA","0","NA","24","0","24","0","0","0","0","24","0","0","0","NA","Sat Oct 28 16:43:15 2023","20","The main experiment item","yes","CogPsy_Assignment_With_Instruction.osexp","C:/Users/lukas/OneDrive/Dokumente/Uni/VU/P1/Cognitive Psych/Experiment","no","mono","no","18","no","white","no","Student","yes","768","C:/Users/lukas/OneDrive/Dokumente/Uni/VU/P1/Cognitive Psych/Experiment/logs_with/subject-1.csv","real","Melodramatic Milgram","4.0.5","genuine","right","return","NA","return","return","NA","right","1358.4023000003072","1627.233300008811","NA","118610.93599999731","3747.4533000058727","NA","1358.4023000003072","NA","NA","2","real_20","1024","2","48000","-16","experiment","1","odd","32293.70629999903","NA","27207.412000003387","43622.581000003265","NA","30832.11270000902","23399.064099998213","265251.04270000884","NA","NA","265755.68750000093","52367.60940001113","23455.85480000591","NA","NA","NA","NA","NA","NA","NA","NA","NA","35670.83190000267","NA","265755.9236000088","170979.06180001155","265244.74370000826","NA","52351.35029999947","NA","35668.16420000396","267115.01400001","NA","32291.470399999525","NA","NA","New experiment","12","78704.64269995864","25","1024"
"46","NA","46","3057","3057","#3d3846","psycho","NA","0","undefined","undefined","0","left","0","0","0","0","0","0","0","25","NA","0","25","0","0","NA","NA","NA","0","NA","NA","NA","NA","NA","0","NA","25","0","25","0","0","0","0","25","0","0","0","NA","Sat Oct 28 16:43:15 2023","20","The main experiment item","yes","CogPsy_Assignment_With_Instruction.osexp","C:/Users/lukas/OneDrive/Dokumente/Uni/VU/P1/Cognitive Psych/Experiment","no","mono","no","18","no","white","no","Student","yes","768","C:/Users/lukas/OneDrive/Dokumente/Uni/VU/P1/Cognitive Psych/Experiment/logs_with/subject-1.csv","fake","Melodramatic Milgram","4.0.5","silver_strip","right","return","NA","return","return","NA","right","802.3409000015818","1627.233300008811","NA","118610.93599999731","3747.4533000058727","NA","802.3409000015818","NA","NA","2","fake_2_20","1024","2","48000","-16","experiment","1","odd","32293.70629999903","NA","27207.412000003387","43622.581000003265","NA","30832.11270000902","23399.064099998213","267245.1541000046","NA","NA","267750.63410001167","52367.60940001113","23455.85480000591","NA","NA","NA","NA","NA","NA","NA","NA","NA","35670.83190000267","NA","267750.88230000983","170979.06180001155","267240.326500003","NA","52351.35029999947","NA","35668.16420000396","268553.7028000108","NA","32291.470399999525","NA","NA","New experiment","12","79506.98359996022","26","1024"
"48","NA","48","2976","2976","#3d3846","psycho","NA","1","undefined","undefined","1","right","0","0","0","0","0","0","0","26","NA","0","26","0","0","NA","NA","NA","0","NA","NA","NA","NA","NA","0","NA","26","0","26","0","0","0","0","26","0","0","0","NA","Sat Oct 28 16:43:15 2023","20","The main experiment item","yes","CogPsy_Assignment_With_Instruction.osexp","C:/Users/lukas/OneDrive/Dokumente/Uni/VU/P1/Cognitive Psych/Experiment","no","mono","no","18","no","white","no","Student","yes","768","C:/Users/lukas/OneDrive/Dokumente/Uni/VU/P1/Cognitive Psych/Experiment/logs_with/subject-1.csv","real","Melodramatic Milgram","4.0.5","genuine","right","return","NA","return","return","NA","right","846.0214999940945","1627.233300008811","NA","118610.93599999731","3747.4533000058727","NA","846.0214999940945","NA","NA","2","real_20","1024","2","48000","-16","experiment","1","odd","32293.70629999903","NA","27207.412000003387","43622.581000003265","NA","30832.11270000902","23399.064099998213","268674.44550000073","NA","NA","269180.67270000756","52367.60940001113","23455.85480000591","NA","NA","NA","NA","NA","NA","NA","NA","NA","35670.83190000267","NA","269180.91340000683","170979.06180001155","268669.7385000007","NA","52351.35029999947","NA","35668.16420000396","270027.4623000005","NA","32291.470399999525","NA","NA","New experiment","13","80353.00509995432","27","1024"
"50","NA","50","2941","2941","#3d3846","psycho","NA","1","undefined","undefined","1","left","0","0","0","0","0","0","0","27","NA","0","27","0","0","NA","NA","NA","0","NA","NA","NA","NA","NA","0","NA","27","0","27","0","0","0","0","27","0","0","0","NA","Sat Oct 28 16:43:15 2023","50","The main experiment item","yes","CogPsy_Assignment_With_Instruction.osexp","C:/Users/lukas/OneDrive/Dokumente/Uni/VU/P1/Cognitive Psych/Experiment","no","mono","no","18","no","white","no","Student","yes","768","C:/Users/lukas/OneDrive/Dokumente/Uni/VU/P1/Cognitive Psych/Experiment/logs_with/subject-1.csv","fake","Melodramatic Milgram","4.0.5","PurpleDenomination2","left","return","NA","return","return","NA","left","2021.8643999978667","1627.233300008811","NA","118610.93599999731","3747.4533000058727","NA","2021.8643999978667","NA","NA","2","fake_2_50","1024","2","48000","-16","experiment","1","odd","32293.70629999903","NA","27207.412000003387","43622.581000003265","NA","30832.11270000902","23399.064099998213","270210.99890000187","NA","NA","270716.26520001155","52367.60940001113","23455.85480000591","NA","NA","NA","NA","NA","NA","NA","NA","NA","35670.83190000267","NA","270716.5326000104","170979.06180001155","270203.0424000113","NA","52351.35029999947","NA","35668.16420000396","272738.8448999991","NA","32291.470399999525","NA","NA","New experiment","14","82374.86949995218","28","1024"
"51","NA","51","2869","2869","#3d3846","psycho","NA","1","undefined","undefined","1","left","0","0","0","0","0","0","0","28","NA","0","28","0","0","NA","NA","NA","0","NA","NA","NA","NA","NA","0","NA","28","0","28","0","0","0","0","28","0","0","0","NA","Sat Oct 28 16:43:15 2023","20","The main experiment item","yes","CogPsy_Assignment_With_Instruction.osexp","C:/Users/lukas/OneDrive/Dokumente/Uni/VU/P1/Cognitive Psych/Experiment","no","mono","no","18","no","white","no","Student","yes","768","C:/Users/lukas/OneDrive/Dokumente/Uni/VU/P1/Cognitive Psych/Experiment/logs_with/subject-1.csv","fake","Melodramatic Milgram","4.0.5","PurpleDenomination","left","return","NA","return","return","NA","left","841.0193000017898","1627.233300008811","NA","118610.93599999731","3747.4533000058727","NA","841.0193000017898","NA","NA","2","fake_20","1024","2","48000","-16","experiment","1","odd","32293.70629999903","NA","27207.412000003387","43622.581000003265","NA","30832.11270000902","23399.064099998213","272872.9891000112","NA","NA","273377.747800012","52367.60940001113","23455.85480000591","NA","NA","NA","NA","NA","NA","NA","NA","NA","35670.83190000267","NA","273377.94869999925","170979.06180001155","272868.66510000254","NA","52351.35029999947","NA","35668.16420000396","274219.6344000113","NA","32291.470399999525","NA","NA","New experiment","15","83215.88879995397","29","1024"
"50","NA","50","2799","2799","#3d3846","psycho","NA","0","undefined","undefined","0","left","0","0","0","0","0","0","0","29","NA","0","29","0","0","NA","NA","NA","0","NA","NA","NA","NA","NA","0","NA","29","0","29","0","0","0","0","29","0","0","0","NA","Sat Oct 28 16:43:15 2023","20","The main experiment item","yes","CogPsy_Assignment_With_Instruction.osexp","C:/Users/lukas/OneDrive/Dokumente/Uni/VU/P1/Cognitive Psych/Experiment","no","mono","no","18","no","white","no","Student","yes","768","C:/Users/lukas/OneDrive/Dokumente/Uni/VU/P1/Cognitive Psych/Experiment/logs_with/subject-1.csv","fake","Melodramatic Milgram","4.0.5","DullHologram","right","return","NA","return","return","NA","right","782.6741000026232","1627.233300008811","NA","118610.93599999731","3747.4533000058727","NA","782.6741000026232","NA","NA","2","fake_20","1024","2","48000","-16","experiment","1","odd","32293.70629999903","NA","27207.412000003387","43622.581000003265","NA","30832.11270000902","23399.064099998213","274374.1913999984","NA","NA","274879.7001000057","52367.60940001113","23455.85480000591","NA","NA","NA","NA","NA","NA","NA","NA","NA","35670.83190000267","NA","274879.83180000447","170979.06180001155","274368.0514000007","NA","52351.35029999947","NA","35668.16420000396","275663.1645000016","NA","32291.470399999525","NA","NA","New experiment","15","83998.5628999566","30","1024"
"48","NA","48","2878","2878","#3d3846","psycho","NA","0","undefined","undefined","0","left","0","0","0","0","0","0","0","30","NA","0","30","0","0","NA","NA","NA","0","NA","NA","NA","NA","NA","0","NA","30","0","30","0","0","0","0","30","0","0","0","NA","Sat Oct 28 16:43:15 2023","50","The main experiment item","yes","CogPsy_Assignment_With_Instruction.osexp","C:/Users/lukas/OneDrive/Dokumente/Uni/VU/P1/Cognitive Psych/Experiment","no","mono","no","18","no","white","no","Student","yes","768","C:/Users/lukas/OneDrive/Dokumente/Uni/VU/P1/Cognitive Psych/Experiment/logs_with/subject-1.csv","fake","Melodramatic Milgram","4.0.5","NoNumOnThread_BlurryWatermark","right","return","NA","return","return","NA","right","5228.709400005755","1627.233300008811","NA","118610.93599999731","3747.4533000058727","NA","5228.709400005755","NA","NA","2","fake_2_50","1024","2","48000","-16","experiment","1","odd","32293.70629999903","NA","27207.412000003387","43622.581000003265","NA","30832.11270000902","23399.064099998213","275815.4452000017","NA","NA","276320.37590000255","52367.60940001113","23455.85480000591","NA","NA","NA","NA","NA","NA","NA","NA","NA","35670.83190000267","NA","276320.7237000024","170979.06180001155","275809.6053000045","NA","52351.35029999947","NA","35668.16420000396","281550.09080001037","NA","32291.470399999525","NA","NA","New experiment","15","89227.27229996235","31","1024"
"50","NA","50","2816","2816","#3d3846","psycho","NA","1","undefined","undefined","1","left","0","0","0","0","0","0","0","31","NA","0","31","0","0","NA","NA","NA","0","NA","NA","NA","NA","NA","0","NA","31","0","31","0","0","0","0","31","0","0","0","NA","Sat Oct 28 16:43:15 2023","50","The main experiment item","yes","CogPsy_Assignment_With_Instruction.osexp","C:/Users/lukas/OneDrive/Dokumente/Uni/VU/P1/Cognitive Psych/Experiment","no","mono","no","18","no","white","no","Student","yes","768","C:/Users/lukas/OneDrive/Dokumente/Uni/VU/P1/Cognitive Psych/Experiment/logs_with/subject-1.csv","fake","Melodramatic Milgram","4.0.5","PurpleDenomination3","left","return","NA","return","return","NA","left","907.2908000089228","1627.233300008811","NA","118610.93599999731","3747.4533000058727","NA","907.2908000089228","NA","NA","2","fake_2_50","1024","2","48000","-16","experiment","1","odd","32293.70629999903","NA","27207.412000003387","43622.581000003265","NA","30832.11270000902","23399.064099998213","281703.71260000684","NA","NA","282208.43220000097","52367.60940001113","23455.85480000591","NA","NA","NA","NA","NA","NA","NA","NA","NA","35670.83190000267","NA","282208.86050000263","170979.06180001155","281698.71240000066","NA","52351.35029999947","NA","35668.16420000396","283116.6392000014","NA","32291.470399999525","NA","NA","New experiment","16","90134.56309997127","32","1024"
"48","NA","48","2769","2769","#3d3846","psycho","NA","0","undefined","undefined","0","left","0","0","0","0","0","0","0","32","NA","0","32","0","0","NA","NA","NA","0","NA","NA","NA","NA","NA","0","NA","32","0","32","0","0","0","0","32","0","0","0","NA","Sat Oct 28 16:43:15 2023","20","The main experiment item","yes","CogPsy_Assignment_With_Instruction.osexp","C:/Users/lukas/OneDrive/Dokumente/Uni/VU/P1/Cognitive Psych/Experiment","no","mono","no","18","no","white","no","Student","yes","768","C:/Users/lukas/OneDrive/Dokumente/Uni/VU/P1/Cognitive Psych/Experiment/logs_with/subject-1.csv","fake","Melodramatic Milgram","4.0.5","NoNumOnThread_BlurryWatermark","right","return","NA","return","return","NA","right","1264.7059000009904","1627.233300008811","NA","118610.93599999731","3747.4533000058727","NA","1264.7059000009904","NA","NA","2","fake_20","1024","2","48000","-16","experiment","1","odd","32293.70629999903","NA","27207.412000003387","43622.581000003265","NA","30832.11270000902","23399.064099998213","283299.8660000012","NA","NA","283804.409400007","52367.60940001113","23455.85480000591","NA","NA","NA","NA","NA","NA","NA","NA","NA","35670.83190000267","NA","283804.78440001025","170979.06180001155","283294.4966000068","NA","52351.35029999947","NA","35668.16420000396","285070.00849999895","NA","32291.470399999525","NA","NA","New experiment","16","91399.26899997226","33","1024"
"50","NA","50","2722","2722","#3d3846","psycho","NA","1","undefined","undefined","1","right","0","0","0","0","0","0","0","33","NA","0","33","0","0","NA","NA","NA","0","NA","NA","NA","NA","NA","0","NA","33","0","33","0","0","0","0","33","0","0","0","NA","Sat Oct 28 16:43:15 2023","20","The main experiment item","yes","CogPsy_Assignment_With_Instruction.osexp","C:/Users/lukas/OneDrive/Dokumente/Uni/VU/P1/Cognitive Psych/Experiment","no","mono","no","18","no","white","no","Student","yes","768","C:/Users/lukas/OneDrive/Dokumente/Uni/VU/P1/Cognitive Psych/Experiment/logs_with/subject-1.csv","real","Melodramatic Milgram","4.0.5","photo","right","return","NA","return","return","NA","right","1163.5253999993438","1627.233300008811","NA","118610.93599999731","3747.4533000058727","NA","1163.5253999993438","NA","NA","2","real_20","1024","2","48000","-16","experiment","1","odd","32293.70629999903","NA","27207.412000003387","43622.581000003265","NA","30832.11270000902","23399.064099998213","285260.4931000096","NA","NA","285765.5487000011","52367.60940001113","23455.85480000591","NA","NA","NA","NA","NA","NA","NA","NA","NA","35670.83190000267","NA","285765.90870000655","170979.06180001155","285255.292700007","NA","52351.35029999947","NA","35668.16420000396","286929.9006000074","NA","32291.470399999525","NA","NA","New experiment","17","92562.79439997161","34","1024"
"48","NA","48","2697","2697","#3d3846","psycho","NA","0","undefined","undefined","0","left","0","0","0","0","0","0","0","34","NA","0","34","0","0","NA","NA","NA","0","NA","NA","NA","NA","NA","0","NA","34","0","34","0","0","0","0","34","0","0","0","NA","Sat Oct 28 16:43:15 2023","20","The main experiment item","yes","CogPsy_Assignment_With_Instruction.osexp","C:/Users/lukas/OneDrive/Dokumente/Uni/VU/P1/Cognitive Psych/Experiment","no","mono","no","18","no","white","no","Student","yes","768","C:/Users/lukas/OneDrive/Dokumente/Uni/VU/P1/Cognitive Psych/Experiment/logs_with/subject-1.csv","fake","Melodramatic Milgram","4.0.5","bottom_left","right","return","NA","return","return","NA","right","1845.4017999902135","1627.233300008811","NA","118610.93599999731","3747.4533000058727","NA","1845.4017999902135","NA","NA","2","fake_1_20","1024","2","48000","-16","experiment","1","odd","32293.70629999903","NA","27207.412000003387","43622.581000003265","NA","30832.11270000902","23399.064099998213","287101.72240000975","NA","NA","287606.3906000054","52367.60940001113","23455.85480000591","NA","NA","NA","NA","NA","NA","NA","NA","NA","35670.83190000267","NA","287606.7161000101","170979.06180001155","287095.66960000666","NA","52351.35029999947","NA","35668.16420000396","289453.13420001185","NA","32291.470399999525","NA","NA","New experiment","17","94408.19619996182","35","1024"
"47","NA","47","2833","2833","#3d3846","psycho","NA","0","undefined","undefined","0","left","0","0","0","0","0","0","0","35","NA","0","35","0","0","NA","NA","NA","0","NA","NA","NA","NA","NA","0","NA","35","0","35","0","0","0","0","35","0","0","0","NA","Sat Oct 28 16:43:15 2023","20","The main experiment item","yes","CogPsy_Assignment_With_Instruction.osexp","C:/Users/lukas/OneDrive/Dokumente/Uni/VU/P1/Cognitive Psych/Experiment","no","mono","no","18","no","white","no","Student","yes","768","C:/Users/lukas/OneDrive/Dokumente/Uni/VU/P1/Cognitive Psych/Experiment/logs_with/subject-1.csv","fake","Melodramatic Milgram","4.0.5","BadInk2","right","return","NA","return","return","NA","right","7586.040399997728","1627.233300008811","NA","118610.93599999731","3747.4533000058727","NA","7586.040399997728","NA","NA","2","fake_20","1024","2","48000","-16","experiment","1","odd","32293.70629999903","NA","27207.412000003387","43622.581000003265","NA","30832.11270000902","23399.064099998213","289652.6922000048","NA","NA","290157.87609999825","52367.60940001113","23455.85480000591","NA","NA","NA","NA","NA","NA","NA","NA","NA","35670.83190000267","NA","290158.11360000225","170979.06180001155","289647.512800002","NA","52351.35029999947","NA","35668.16420000396","297744.8558000033","NA","32291.470399999525","NA","NA","New experiment","17","101994.23659995955","36","1024"
"45","NA","45","2796","2796","#3d3846","psycho","NA","0","undefined","undefined","0","right","0","0","0","0","0","0","0","36","NA","0","36","0","0","NA","NA","NA","0","NA","NA","NA","NA","NA","0","NA","36","0","36","0","0","0","0","36","0","0","0","NA","Sat Oct 28 16:43:15 2023","50","The main experiment item","yes","CogPsy_Assignment_With_Instruction.osexp","C:/Users/lukas/OneDrive/Dokumente/Uni/VU/P1/Cognitive Psych/Experiment","no","mono","no","18","no","white","no","Student","yes","768","C:/Users/lukas/OneDrive/Dokumente/Uni/VU/P1/Cognitive Psych/Experiment/logs_with/subject-1.csv","real","Melodramatic Milgram","4.0.5","photo","left","return","NA","return","return","NA","left","1484.4401000009384","1627.233300008811","NA","118610.93599999731","3747.4533000058727","NA","1484.4401000009384","NA","NA","2","real_50","1024","2","48000","-16","experiment","1","odd","32293.70629999903","NA","27207.412000003387","43622.581000003265","NA","30832.11270000902","23399.064099998213","297917.6387000043","NA","NA","298422.9680999997","52367.60940001113","23455.85480000591","NA","NA","NA","NA","NA","NA","NA","NA","NA","35670.83190000267","NA","298423.1878999999","170979.06180001155","297912.948600002","NA","52351.35029999947","NA","35668.16420000396","299908.6244000064","NA","32291.470399999525","NA","NA","New experiment","17","103478.67669996049","37","1024"
"47","NA","47","2766","2766","#3d3846","psycho","NA","1","undefined","undefined","1","right","0","0","0","0","0","0","0","37","NA","0","37","0","0","NA","NA","NA","0","NA","NA","NA","NA","NA","0","NA","37","0","37","0","0","0","0","37","0","0","0","NA","Sat Oct 28 16:43:15 2023","20","The main experiment item","yes","CogPsy_Assignment_With_Instruction.osexp","C:/Users/lukas/OneDrive/Dokumente/Uni/VU/P1/Cognitive Psych/Experiment","no","mono","no","18","no","white","no","Student","yes","768","C:/Users/lukas/OneDrive/Dokumente/Uni/VU/P1/Cognitive Psych/Experiment/logs_with/subject-1.csv","real","Melodramatic Milgram","4.0.5","genuine","right","return","NA","return","return","NA","right","1634.4080000126269","1627.233300008811","NA","118610.93599999731","3747.4533000058727","NA","1634.4080000126269","NA","NA","2","real_20","1024","2","48000","-16","experiment","1","odd","32293.70629999903","NA","27207.412000003387","43622.581000003265","NA","30832.11270000902","23399.064099998213","300046.3971999998","NA","NA","300549.38050000055","52367.60940001113","23455.85480000591","NA","NA","NA","NA","NA","NA","NA","NA","NA","35670.83190000267","NA","300549.5216999989","170979.06180001155","300041.61460000614","NA","52351.35029999947","NA","35668.16420000396","302184.8661000113","NA","32291.470399999525","NA","NA","New experiment","18","105113.08469997311","38","1024"
"48","NA","48","2727","2727","#3d3846","psycho","NA","1","undefined","undefined","1","right","0","0","0","0","0","0","0","38","NA","0","38","0","0","NA","NA","NA","0","NA","NA","NA","NA","NA","0","NA","38","0","38","0","0","0","0","38","0","0","0","NA","Sat Oct 28 16:43:15 2023","50","The main experiment item","yes","CogPsy_Assignment_With_Instruction.osexp","C:/Users/lukas/OneDrive/Dokumente/Uni/VU/P1/Cognitive Psych/Experiment","no","mono","no","18","no","white","no","Student","yes","768","C:/Users/lukas/OneDrive/Dokumente/Uni/VU/P1/Cognitive Psych/Experiment/logs_with/subject-1.csv","real","Melodramatic Milgram","4.0.5","photo_2","right","return","NA","return","return","NA","right","1259.5894999976736","1627.233300008811","NA","118610.93599999731","3747.4533000058727","NA","1259.5894999976736","NA","NA","2","real_50","1024","2","48000","-16","experiment","1","odd","32293.70629999903","NA","27207.412000003387","43622.581000003265","NA","30832.11270000902","23399.064099998213","302339.82140000444","NA","NA","302845.14450001006","52367.60940001113","23455.85480000591","NA","NA","NA","NA","NA","NA","NA","NA","NA","35670.83190000267","NA","302845.36240001034","170979.06180001155","302335.97330001066","NA","52351.35029999947","NA","35668.16420000396","304105.6654999993","NA","32291.470399999525","NA","NA","New experiment","19","106372.67419997079","39","1024"
"47","NA","47","2690","2690","#3d3846","psycho","NA","0","undefined","undefined","0","left","0","0","0","0","0","0","0","39","NA","0","39","0","0","NA","NA","NA","0","NA","NA","NA","NA","NA","0","NA","39","0","39","0","0","0","0","39","0","0","0","NA","Sat Oct 28 16:43:15 2023","20","The main experiment item","yes","CogPsy_Assignment_With_Instruction.osexp","C:/Users/lukas/OneDrive/Dokumente/Uni/VU/P1/Cognitive Psych/Experiment","no","mono","no","18","no","white","no","Student","yes","768","C:/Users/lukas/OneDrive/Dokumente/Uni/VU/P1/Cognitive Psych/Experiment/logs_with/subject-1.csv","fake","Melodramatic Milgram","4.0.5","bottom_left","right","return","NA","return","return","NA","right","1228.6991000000853","1627.233300008811","NA","118610.93599999731","3747.4533000058727","NA","1228.6991000000853","NA","NA","2","fake_1_20","1024","2","48000","-16","experiment","1","odd","32293.70629999903","NA","27207.412000003387","43622.581000003265","NA","30832.11270000902","23399.064099998213","304231.36550000345","NA","NA","304736.85919999843","52367.60940001113","23455.85480000591","NA","NA","NA","NA","NA","NA","NA","NA","NA","35670.83190000267","NA","304737.13330000464","170979.06180001155","304226.928700009","NA","52351.35029999947","NA","35668.16420000396","305966.6150000121","NA","32291.470399999525","NA","NA","New experiment","19","107601.37329997087","40","1024"
"46","NA","46","2650","2650","#3d3846","psycho","NA","0","undefined","undefined","0","left","0","0","0","0","0","0","0","40","NA","0","40","0","0","NA","NA","NA","0","NA","NA","NA","NA","NA","0","NA","40","0","40","0","0","0","0","40","0","0","0","NA","Sat Oct 28 16:43:15 2023","20","The main experiment item","yes","CogPsy_Assignment_With_Instruction.osexp","C:/Users/lukas/OneDrive/Dokumente/Uni/VU/P1/Cognitive Psych/Experiment","no","mono","no","18","no","white","no","Student","yes","768","C:/Users/lukas/OneDrive/Dokumente/Uni/VU/P1/Cognitive Psych/Experiment/logs_with/subject-1.csv","fake","Melodramatic Milgram","4.0.5","DullHologram2","right","return","NA","return","return","NA","right","1066.4809000008972","1627.233300008811","NA","118610.93599999731","3747.4533000058727","NA","1066.4809000008972","NA","NA","2","fake_20","1024","2","48000","-16","experiment","1","odd","32293.70629999903","NA","27207.412000003387","43622.581000003265","NA","30832.11270000902","23399.064099998213","306112.29170000297","NA","NA","306617.32770000526","52367.60940001113","23455.85480000591","NA","NA","NA","NA","NA","NA","NA","NA","NA","35670.83190000267","NA","306617.7030000108","170979.06180001155","306107.78089999803","NA","52351.35029999947","NA","35668.16420000396","307685.13379999786","NA","32291.470399999525","NA","NA","New experiment","19","108667.85419997177","41","1024"
"45","NA","45","2680","2680","#3d3846","psycho","NA","0","undefined","undefined","0","left","0","0","0","0","0","0","0","41","NA","0","41","0","0","NA","NA","NA","0","NA","NA","NA","NA","NA","0","NA","41","0","41","0","0","0","0","41","0","0","0","NA","Sat Oct 28 16:43:15 2023","50","The main experiment item","yes","CogPsy_Assignment_With_Instruction.osexp","C:/Users/lukas/OneDrive/Dokumente/Uni/VU/P1/Cognitive Psych/Experiment","no","mono","no","18","no","white","no","Student","yes","768","C:/Users/lukas/OneDrive/Dokumente/Uni/VU/P1/Cognitive Psych/Experiment/logs_with/subject-1.csv","fake","Melodramatic Milgram","4.0.5","silver_strip","right","return","NA","return","return","NA","right","3899.507399997674","1627.233300008811","NA","118610.93599999731","3747.4533000058727","NA","3899.507399997674","NA","NA","2","fake_2_50","1024","2","48000","-16","experiment","1","odd","32293.70629999903","NA","27207.412000003387","43622.581000003265","NA","30832.11270000902","23399.064099998213","307826.304400005","NA","NA","308331.46270000725","52367.60940001113","23455.85480000591","NA","NA","NA","NA","NA","NA","NA","NA","NA","35670.83190000267","NA","308331.65510000254","170979.06180001155","307821.8621999986","NA","52351.35029999947","NA","35668.16420000396","312231.73090000637","NA","32291.470399999525","NA","NA","New experiment","19","112567.36159996944","42","1024"
"46","NA","46","2649","2649","#3d3846","psycho","NA","1","undefined","undefined","1","left","0","0","0","0","0","0","0","42","NA","0","42","0","0","NA","NA","NA","0","NA","NA","NA","NA","NA","0","NA","42","0","42","0","0","0","0","42","0","0","0","NA","Sat Oct 28 16:43:15 2023","50","The main experiment item","yes","CogPsy_Assignment_With_Instruction.osexp","C:/Users/lukas/OneDrive/Dokumente/Uni/VU/P1/Cognitive Psych/Experiment","no","mono","no","18","no","white","no","Student","yes","768","C:/Users/lukas/OneDrive/Dokumente/Uni/VU/P1/Cognitive Psych/Experiment/logs_with/subject-1.csv","fake","Melodramatic Milgram","4.0.5","PurpleDenomination","left","return","NA","return","return","NA","left","1340.0065999885555","1627.233300008811","NA","118610.93599999731","3747.4533000058727","NA","1340.0065999885555","NA","NA","2","fake_2_50","1024","2","48000","-16","experiment","1","odd","32293.70629999903","NA","27207.412000003387","43622.581000003265","NA","30832.11270000902","23399.064099998213","312396.5806000051","NA","NA","312901.66840000893","52367.60940001113","23455.85480000591","NA","NA","NA","NA","NA","NA","NA","NA","NA","35670.83190000267","NA","312901.91530001175","170979.06180001155","312391.7000000074","NA","52351.35029999947","NA","35668.16420000396","314242.4311000068","NA","32291.470399999525","NA","NA","New experiment","20","113907.368199958","43","1024"
"45","NA","45","2620","2620","#3d3846","psycho","NA","0","undefined","undefined","0","left","0","0","0","0","0","0","0","43","NA","0","43","0","0","NA","NA","NA","0","NA","NA","NA","NA","NA","0","NA","43","0","43","0","0","0","0","43","0","0","0","NA","Sat Oct 28 16:43:15 2023","20","The main experiment item","yes","CogPsy_Assignment_With_Instruction.osexp","C:/Users/lukas/OneDrive/Dokumente/Uni/VU/P1/Cognitive Psych/Experiment","no","mono","no","18","no","white","no","Student","yes","768","C:/Users/lukas/OneDrive/Dokumente/Uni/VU/P1/Cognitive Psych/Experiment/logs_with/subject-1.csv","fake","Melodramatic Milgram","4.0.5","NoNumOnThread_BlurryWatermark","right","return","NA","return","return","NA","right","1380.4929000034463","1627.233300008811","NA","118610.93599999731","3747.4533000058727","NA","1380.4929000034463","NA","NA","2","fake_20","1024","2","48000","-16","experiment","1","odd","32293.70629999903","NA","27207.412000003387","43622.581000003265","NA","30832.11270000902","23399.064099998213","314428.3574000001","NA","NA","314933.79190000996","52367.60940001113","23455.85480000591","NA","NA","NA","NA","NA","NA","NA","NA","NA","35670.83190000267","NA","314934.027299998","170979.06180001155","314423.5325000045","NA","52351.35029999947","NA","35668.16420000396","316315.30650000786","NA","32291.470399999525","NA","NA","New experiment","20","115287.86109996145","44","1024"
"46","NA","46","2579","2579","#3d3846","psycho","NA","1","undefined","undefined","1","left","0","0","0","0","0","0","0","44","NA","0","44","0","0","NA","NA","NA","0","NA","NA","NA","NA","NA","0","NA","44","0","44","0","0","0","0","44","0","0","0","NA","Sat Oct 28 16:43:15 2023","20","The main experiment item","yes","CogPsy_Assignment_With_Instruction.osexp","C:/Users/lukas/OneDrive/Dokumente/Uni/VU/P1/Cognitive Psych/Experiment","no","mono","no","18","no","white","no","Student","yes","768","C:/Users/lukas/OneDrive/Dokumente/Uni/VU/P1/Cognitive Psych/Experiment/logs_with/subject-1.csv","fake","Melodramatic Milgram","4.0.5","BrownDenomination","left","return","NA","return","return","NA","left","809.909500007052","1627.233300008811","NA","118610.93599999731","3747.4533000058727","NA","809.909500007052","NA","NA","2","fake_20","1024","2","48000","-16","experiment","1","odd","32293.70629999903","NA","27207.412000003387","43622.581000003265","NA","30832.11270000902","23399.064099998213","316514.3628000078","NA","NA","317019.1021000064","52367.60940001113","23455.85480000591","NA","NA","NA","NA","NA","NA","NA","NA","NA","35670.83190000267","NA","317019.3083000049","170979.06180001155","316509.18690000253","NA","52351.35029999947","NA","35668.16420000396","317829.75299999816","NA","32291.470399999525","NA","NA","New experiment","21","116097.7705999685","45","1024"
"47","NA","47","2548","2548","#3d3846","psycho","NA","1","undefined","undefined","1","left","0","0","0","0","0","0","0","45","NA","0","45","0","0","NA","NA","NA","0","NA","NA","NA","NA","NA","0","NA","45","0","45","0","0","0","0","45","0","0","0","NA","Sat Oct 28 16:43:15 2023","50","The main experiment item","yes","CogPsy_Assignment_With_Instruction.osexp","C:/Users/lukas/OneDrive/Dokumente/Uni/VU/P1/Cognitive Psych/Experiment","no","mono","no","18","no","white","no","Student","yes","768","C:/Users/lukas/OneDrive/Dokumente/Uni/VU/P1/Cognitive Psych/Experiment/logs_with/subject-1.csv","fake","Melodramatic Milgram","4.0.5","PurpleDenomination2","left","return","NA","return","return","NA","left","1131.7032000079053","1627.233300008811","NA","118610.93599999731","3747.4533000058727","NA","1131.7032000079053","NA","NA","2","fake_2_50","1024","2","48000","-16","experiment","1","odd","32293.70629999903","NA","27207.412000003387","43622.581000003265","NA","30832.11270000902","23399.064099998213","318029.1733000049","NA","NA","318533.96690000955","52367.60940001113","23455.85480000591","NA","NA","NA","NA","NA","NA","NA","NA","NA","35670.83190000267","NA","318534.1793999978","170979.06180001155","318023.03130000655","NA","52351.35029999947","NA","35668.16420000396","319666.4587999985","NA","32291.470399999525","NA","NA","New experiment","22","117229.4737999764","46","1024"
"48","NA","48","2517","2517","#3d3846","psycho","NA","1","undefined","undefined","1","right","0","0","0","0","0","0","0","46","NA","0","46","0","0","NA","NA","NA","0","NA","NA","NA","NA","NA","0","NA","46","0","46","0","0","0","0","46","0","0","0","NA","Sat Oct 28 16:43:15 2023","50","The main experiment item","yes","CogPsy_Assignment_With_Instruction.osexp","C:/Users/lukas/OneDrive/Dokumente/Uni/VU/P1/Cognitive Psych/Experiment","no","mono","no","18","no","white","no","Student","yes","768","C:/Users/lukas/OneDrive/Dokumente/Uni/VU/P1/Cognitive Psych/Experiment/logs_with/subject-1.csv","real","Melodramatic Milgram","4.0.5","genuine","right","return","NA","return","return","NA","right","1097.132300012163","1627.233300008811","NA","118610.93599999731","3747.4533000058727","NA","1097.132300012163","NA","NA","2","real_50","1024","2","48000","-16","experiment","1","odd","32293.70629999903","NA","27207.412000003387","43622.581000003265","NA","30832.11270000902","23399.064099998213","319842.22520000185","NA","NA","320345.8774000028","52367.60940001113","23455.85480000591","NA","NA","NA","NA","NA","NA","NA","NA","NA","35670.83190000267","NA","320346.03739999875","170979.06180001155","319836.27040000283","NA","52351.35029999947","NA","35668.16420000396","321443.71279999905","NA","32291.470399999525","NA","NA","New experiment","23","118326.60609998857","47","1024"
"50","NA","50","2482","2482","#3d3846","psycho","NA","1","undefined","undefined","1","right","0","0","0","0","0","0","0","47","NA","0","47","0","0","NA","NA","NA","0","NA","NA","NA","NA","NA","0","NA","47","0","47","0","0","0","0","47","0","0","0","NA","Sat Oct 28 16:43:15 2023","20","The main experiment item","yes","CogPsy_Assignment_With_Instruction.osexp","C:/Users/lukas/OneDrive/Dokumente/Uni/VU/P1/Cognitive Psych/Experiment","no","mono","no","18","no","white","no","Student","yes","768","C:/Users/lukas/OneDrive/Dokumente/Uni/VU/P1/Cognitive Psych/Experiment/logs_with/subject-1.csv","real","Melodramatic Milgram","4.0.5","genuine","right","return","NA","return","return","NA","right","852.7215000067372","1627.233300008811","NA","118610.93599999731","3747.4533000058727","NA","852.7215000067372","NA","NA","2","real_20","1024","2","48000","-16","experiment","1","odd","32293.70629999903","NA","27207.412000003387","43622.581000003265","NA","30832.11270000902","23399.064099998213","321566.16320001194","NA","NA","322070.8602000086","52367.60940001113","23455.85480000591","NA","NA","NA","NA","NA","NA","NA","NA","NA","35670.83190000267","NA","322071.05189999857","170979.06180001155","321559.50680001115","NA","52351.35029999947","NA","35668.16420000396","322924.6131000109","NA","32291.470399999525","NA","NA","New experiment","24","119179.3275999953","48","1024"
"51","NA","51","2448","2448","#3d3846","psycho","NA","1","undefined","undefined","1","right","0","0","0","0","0","0","0","48","NA","0","48","0","0","NA","NA","NA","0","NA","NA","NA","NA","NA","0","NA","48","0","48","0","0","0","0","48","0","0","0","NA","Sat Oct 28 16:43:15 2023","50","The main experiment item","yes","CogPsy_Assignment_With_Instruction.osexp","C:/Users/lukas/OneDrive/Dokumente/Uni/VU/P1/Cognitive Psych/Experiment","no","mono","no","18","no","white","no","Student","yes","768","C:/Users/lukas/OneDrive/Dokumente/Uni/VU/P1/Cognitive Psych/Experiment/logs_with/subject-1.csv","real","Melodramatic Milgram","4.0.5","genuine","right","return","NA","return","return","NA","right","803.537799991318","1627.233300008811","NA","118610.93599999731","3747.4533000058727","NA","803.537799991318","NA","NA","2","real_20","1024","2","48000","-16","experiment","1","odd","32293.70629999903","NA","27207.412000003387","43622.581000003265","NA","30832.11270000902","23399.064099998213","323045.74980000325","NA","NA","323551.10350000905","52367.60940001113","23455.85480000591","NA","NA","NA","NA","NA","NA","NA","NA","NA","35670.83190000267","NA","323551.32300000696","170979.06180001155","323041.3402000122","NA","52351.35029999947","NA","35668.16420000396","324355.3862000117","NA","32291.470399999525","NA","NA","New experiment","25","119982.86539998662","49","1024"
"52","NA","52","2425","2425","#3d3846","psycho","NA","1","undefined","undefined","1","right","0","0","0","0","0","0","0","49","NA","0","49","0","0","NA","NA","NA","0","NA","NA","NA","NA","NA","0","NA","49","0","49","0","0","0","0","49","0","0","0","NA","Sat Oct 28 16:43:15 2023","50","The main experiment item","yes","CogPsy_Assignment_With_Instruction.osexp","C:/Users/lukas/OneDrive/Dokumente/Uni/VU/P1/Cognitive Psych/Experiment","no","mono","no","18","no","white","no","Student","yes","768","C:/Users/lukas/OneDrive/Dokumente/Uni/VU/P1/Cognitive Psych/Experiment/logs_with/subject-1.csv","real","Melodramatic Milgram","4.0.5","photo","right","return","NA","return","return","NA","right","1272.2715999989305","1627.233300008811","NA","118610.93599999731","3747.4533000058727","NA","1272.2715999989305","NA","NA","2","real_50","1024","2","48000","-16","experiment","1","odd","32293.70629999903","NA","27207.412000003387","43622.581000003265","NA","30832.11270000902","23399.064099998213","324491.05480000435","NA","NA","324996.5252000111","52367.60940001113","23455.85480000591","NA","NA","NA","NA","NA","NA","NA","NA","NA","35670.83190000267","NA","324996.8404000101","170979.06180001155","324486.2057999999","NA","52351.35029999947","NA","35668.16420000396","326269.67700000387","NA","32291.470399999525","NA","NA","New experiment","26","121255.13699998555","50","1024"
"52","NA","52","2395","2395","#3d3846","psycho","NA","1","undefined","undefined","1","right","0","0","0","0","0","0","0","50","NA","0","50","0","0","NA","NA","NA","0","NA","NA","NA","NA","NA","0","NA","50","0","50","0","0","0","0","50","0","0","0","NA","Sat Oct 28 16:43:15 2023","50","The main experiment item","yes","CogPsy_Assignment_With_Instruction.osexp","C:/Users/lukas/OneDrive/Dokumente/Uni/VU/P1/Cognitive Psych/Experiment","no","mono","no","18","no","white","no","Student","yes","768","C:/Users/lukas/OneDrive/Dokumente/Uni/VU/P1/Cognitive Psych/Experiment/logs_with/subject-1.csv","real","Melodramatic Milgram","4.0.5","genuine","right","return","NA","return","return","NA","right","893.2957999932114","1627.233300008811","NA","118610.93599999731","3747.4533000058727","NA","893.2957999932114","NA","NA","2","real_20","1024","2","48000","-16","experiment","1","odd","32293.70629999903","NA","27207.412000003387","43622.581000003265","NA","30832.11270000902","23399.064099998213","326389.2482000083","NA","NA","326893.93700000073","52367.60940001113","23455.85480000591","NA","NA","NA","NA","NA","NA","NA","NA","NA","35670.83190000267","NA","326894.1391000117","170979.06180001155","326384.6498000057","NA","52351.35029999947","NA","35668.16420000396","327788.5246000078","NA","32291.470399999525","NA","NA","New experiment","27","122148.43279997876","51","1024"
"51","NA","51","2365","2365","#3d3846","psycho","NA","0","undefined","undefined","0","left","0","0","0","0","0","0","0","51","NA","0","51","0","0","NA","NA","NA","0","NA","NA","NA","NA","NA","0","NA","51","0","51","0","0","0","0","51","0","0","0","NA","Sat Oct 28 16:43:15 2023","20","The main experiment item","yes","CogPsy_Assignment_With_Instruction.osexp","C:/Users/lukas/OneDrive/Dokumente/Uni/VU/P1/Cognitive Psych/Experiment","no","mono","no","18","no","white","no","Student","yes","768","C:/Users/lukas/OneDrive/Dokumente/Uni/VU/P1/Cognitive Psych/Experiment/logs_with/subject-1.csv","fake","Melodramatic Milgram","4.0.5","BadInk","right","return","NA","return","return","NA","right","844.5323000050848","1627.233300008811","NA","118610.93599999731","3747.4533000058727","NA","844.5323000050848","NA","NA","2","fake_20","1024","2","48000","-16","experiment","1","odd","32293.70629999903","NA","27207.412000003387","43622.581000003265","NA","30832.11270000902","23399.064099998213","327955.8620000025","NA","NA","328460.6072000024","52367.60940001113","23455.85480000591","NA","NA","NA","NA","NA","NA","NA","NA","NA","35670.83190000267","NA","328460.99310000136","170979.06180001155","327948.54560001113","NA","52351.35029999947","NA","35668.16420000396","329306.61070000497","NA","32291.470399999525","NA","NA","New experiment","27","122992.96509998385","52","1024"
"52","NA","52","2337","2337","#3d3846","psycho","NA","1","undefined","undefined","1","left","0","0","0","0","0","0","0","52","NA","0","52","0","0","NA","NA","NA","0","NA","NA","NA","NA","NA","0","NA","52","0","52","0","0","0","0","52","0","0","0","NA","Sat Oct 28 16:43:15 2023","20","The main experiment item","yes","CogPsy_Assignment_With_Instruction.osexp","C:/Users/lukas/OneDrive/Dokumente/Uni/VU/P1/Cognitive Psych/Experiment","no","mono","no","18","no","white","no","Student","yes","768","C:/Users/lukas/OneDrive/Dokumente/Uni/VU/P1/Cognitive Psych/Experiment/logs_with/subject-1.csv","fake","Melodramatic Milgram","4.0.5","BrownDenomination","left","return","NA","return","return","NA","left","876.149899995653","1627.233300008811","NA","118610.93599999731","3747.4533000058727","NA","876.149899995653","NA","NA","2","fake_20","1024","2","48000","-16","experiment","1","odd","32293.70629999903","NA","27207.412000003387","43622.581000003265","NA","30832.11270000902","23399.064099998213","329498.176100009","NA","NA","330003.95070000377","52367.60940001113","23455.85480000591","NA","NA","NA","NA","NA","NA","NA","NA","NA","35670.83190000267","NA","330004.1917000053","170979.06180001155","329492.7740999992","NA","52351.35029999947","NA","35668.16420000396","330881.3197999989","NA","32291.470399999525","NA","NA","New experiment","28","123869.1149999795","53","1024"
"51","NA","51","2308","2308","#3d3846","psycho","NA","0","undefined","undefined","0","left","0","0","0","0","0","0","0","53","NA","0","53","0","0","NA","NA","NA","0","NA","NA","NA","NA","NA","0","NA","53","0","53","0","0","0","0","53","0","0","0","NA","Sat Oct 28 16:43:15 2023","50","The main experiment item","yes","CogPsy_Assignment_With_Instruction.osexp","C:/Users/lukas/OneDrive/Dokumente/Uni/VU/P1/Cognitive Psych/Experiment","no","mono","no","18","no","white","no","Student","yes","768","C:/Users/lukas/OneDrive/Dokumente/Uni/VU/P1/Cognitive Psych/Experiment/logs_with/subject-1.csv","fake","Melodramatic Milgram","4.0.5","bottom_left","right","return","NA","return","return","NA","right","794.3020999955479","1627.233300008811","NA","118610.93599999731","3747.4533000058727","NA","794.3020999955479","NA","NA","2","fake_1_50","1024","2","48000","-16","experiment","1","odd","32293.70629999903","NA","27207.412000003387","43622.581000003265","NA","30832.11270000902","23399.064099998213","331003.79810000595","NA","NA","331510.51110000117","52367.60940001113","23455.85480000591","NA","NA","NA","NA","NA","NA","NA","NA","NA","35670.83190000267","NA","331510.7680000074","170979.06180001155","330997.5872000068","NA","52351.35029999947","NA","35668.16420000396","332305.889100011","NA","32291.470399999525","NA","NA","New experiment","28","124663.41709997505","54","1024"
"51","NA","51","2308","2308","#3d3846","psycho","NA","0","undefined","undefined","0","left","0","0","0","0","0","0","0","53","NA","0","53","0","0","NA","NA","NA","0","NA","NA","NA","NA","NA","0","NA","53","0","53","0","0","0","0","53","0","0","0","NA","Sat Oct 28 16:43:15 2023","50","The main experiment item","yes","CogPsy_Assignment_With_Instruction.osexp","C:/Users/lukas/OneDrive/Dokumente/Uni/VU/P1/Cognitive Psych/Experiment","no","mono","no","18","no","white","no","hologram, denomination color","yes","768","C:/Users/lukas/OneDrive/Dokumente/Uni/VU/P1/Cognitive Psych/Experiment/logs_with/subject-1.csv","fake","Melodramatic Milgram","4.0.5","bottom_left","hologram, denomination color","return","NA","return","return","NA","right","794.3020999955479","1627.233300008811","NA","118610.93599999731","3747.4533000058727","NA","794.3020999955479","NA","NA","2","fake_1_50","1024","2","48000","-16","experiment","1","odd","32293.70629999903","NA","27207.412000003387","43622.581000003265","NA","30832.11270000902","23399.064099998213","331003.79810000595","NA","NA","331510.51110000117","52367.60940001113","23455.85480000591","NA","NA","NA","361798.0674999999","NA","NA","NA","NA","NA","35670.83190000267","NA","331510.7680000074","170979.06180001155","330997.5872000068","NA","52351.35029999947","332380.9622000117","35668.16420000396","332305.889100011","NA","32291.470399999525","NA","NA","New experiment","28","124663.41709997505","54","1024"
"51","NA","51","2308","2308","#3d3846","psycho","NA","0","undefined","undefined","0","left","0","0","0","0","0","0","0","53","NA","0","53","0","0","NA","NA","NA","0","NA","NA","NA","NA","NA","0","NA","53","0","53","0","0","0","0","53","0","0","0","NA","Sat Oct 28 16:43:15 2023","50","The main experiment item","yes","CogPsy_Assignment_With_Instruction.osexp","C:/Users/lukas/OneDrive/Dokumente/Uni/VU/P1/Cognitive Psych/Experiment","no","mono","no","18","no","white","no","Ok","yes","768","C:/Users/lukas/OneDrive/Dokumente/Uni/VU/P1/Cognitive Psych/Experiment/logs_with/subject-1.csv","fake","Melodramatic Milgram","4.0.5","bottom_left","UV hologram;Colors of text;Text values","return","NA","return","return","NA","right","794.3020999955479","1627.233300008811","NA","118610.93599999731","3747.4533000058727","NA","794.3020999955479","NA","NA","2","fake_1_50","1024","2","48000","-16","experiment","1","odd","32293.70629999903","NA","27207.412000003387","43622.581000003265","NA","30832.11270000902","23399.064099998213","331003.79810000595","NA","NA","331510.51110000117","52367.60940001113","23455.85480000591","NA","NA","NA","361798.0674999999","NA","NA","NA","NA","NA","35670.83190000267","NA","331510.7680000074","170979.06180001155","330997.5872000068","NA","52351.35029999947","332380.9622000117","35668.16420000396","332305.889100011","NA","32291.470399999525","373653.8724999991","NA","New experiment","28","124663.41709997505","54","1024"
