"acc","accept_status","accuracy","average_response_time","avg_rt","background","canvas_backend","checkbox_status","correct","correct_consent_sketchpad","correct_instruction_sketchpad","correct_new_keyboard_response","correct_response","count_age_form","count_checkbox_security_form","count_consent_sketchpad","count_country_logger","count_eurozone_form","count_eurozone_logger","count_experiment","count_fixation_dots","count_getting_started","count_goodbye_sketchpad","count_images_sketchpad","count_information_display_sketchpad","count_instruction_sketchpad","count_new_1_form_base","count_new_1_form_text_input","count_new_1_sketchpad","count_new_2_logger","count_new_4_form_multiple_choice","count_new_form_base","count_new_form_consent","count_new_form_multiple_choice","count_new_form_text_display","count_new_form_text_input","count_new_inline_script","count_new_keyboard_response","count_new_loop","count_new_sequence","count_occupation_form","count_occupation_logger","count_open_security_input_form","count_personal_data_logger","count_response_logger","count_schooling_level_form","count_schooling_logger","count_security_feature_logger","count_welcome","datetime","denomination","description","disable_garbage_collection","experiment_file","experiment_path","font_bold","font_family","font_italic","font_size","font_underline","foreground","form_clicks","form_response","fullscreen","height","logfile","note_type","opensesame_codename","opensesame_version","reason","response","response_consent_sketchpad","response_goodbye_sketchpad","response_information_display_sketchpad","response_instruction_sketchpad","response_new_1_sketchpad","response_new_keyboard_response","response_time","response_time_consent_sketchpad","response_time_goodbye_sketchpad","response_time_information_display_sketchpad","response_time_instruction_sketchpad","response_time_new_1_sketchpad","response_time_new_keyboard_response","response_time_welcome","response_welcome","round_decimals","show","sound_buf_size","sound_channels","sound_freq","sound_sample_size","start","subject_nr","subject_parity","time_age_form","time_checkbox_security_form","time_consent_sketchpad","time_country_logger","time_eurozone_form","time_eurozone_logger","time_experiment","time_fixation_dots","time_getting_started","time_goodbye_sketchpad","time_images_sketchpad","time_information_display_sketchpad","time_instruction_sketchpad","time_new_1_form_base","time_new_1_form_text_input","time_new_1_sketchpad","time_new_2_logger","time_new_4_form_multiple_choice","time_new_form_base","time_new_form_consent","time_new_form_multiple_choice","time_new_form_text_display","time_new_form_text_input","time_new_inline_script","time_new_keyboard_response","time_new_loop","time_new_sequence","time_occupation_form","time_occupation_logger","time_open_security_input_form","time_personal_data_logger","time_response_logger","time_schooling_level_form","time_schooling_logger","time_security_feature_logger","time_welcome","title","total_correct","total_response_time","total_responses","width"
"undefined","NA","undefined","undefined","undefined","#3d3846","psycho","NA","undefined","undefined","undefined","NA","NA","0","0","0","0","0","0","0","NA","NA","0","NA","0","0","NA","NA","NA","0","NA","NA","NA","NA","NA","0","NA","NA","0","NA","0","0","0","0","NA","0","0","0","NA","Sun Oct 15 20:35:05 2023","NA","The main experiment item","yes","CogPsy_Assignment_With_Instruction.osexp","C:/Users/lukas/OneDrive/Dokumente/Uni/VU/P1/Cognitive Psych/Experiment","no","mono","no","18","no","white","no","Yes","yes","768","C:/Users/lukas/OneDrive/Dokumente/Uni/VU/P1/Cognitive Psych/Experiment/logs_with/subject-0.csv","NA","Melodramatic Milgram","4.0.5","NA","Yes","return","NA","NA","return","NA","NA","3187.1976999973413","3187.1976999973413","NA","NA","13882.705399999395","NA","NA","NA","NA","2","NA","1024","2","48000","-16","experiment","0","even","NA","NA","26560.77969999751","NA","NA","35695.158699993044","12612.733399990248","NA","NA","NA","NA","NA","12673.307399993064","NA","NA","NA","NA","NA","NA","NA","NA","NA","NA","NA","NA","NA","NA","NA","NA","NA","NA","NA","NA","NA","NA","NA","New experiment","0","0","0","1024"
"undefined","NA","undefined","undefined","undefined","#3d3846","psycho","NA","undefined","undefined","undefined","NA","NA","0","0","0","0","0","0","0","NA","NA","0","NA","0","0","NA","NA","NA","0","NA","NA","NA","NA","NA","0","NA","NA","0","NA","0","0","0","0","NA","0","0","0","NA","Sun Oct 15 20:35:05 2023","NA","The main experiment item","yes","CogPsy_Assignment_With_Instruction.osexp","C:/Users/lukas/OneDrive/Dokumente/Uni/VU/P1/Cognitive Psych/Experiment","no","mono","no","18","no","white","no","High School","yes","768","C:/Users/lukas/OneDrive/Dokumente/Uni/VU/P1/Cognitive Psych/Experiment/logs_with/subject-0.csv","NA","Melodramatic Milgram","4.0.5","NA","High School","return","NA","NA","return","NA","NA","3187.1976999973413","3187.1976999973413","NA","NA","13882.705399999395","NA","NA","NA","NA","2","NA","1024","2","48000","-16","experiment","0","even","NA","NA","26560.77969999751","NA","NA","35695.158699993044","12612.733399990248","NA","NA","NA","NA","NA","12673.307399993064","NA","NA","NA","NA","NA","NA","NA","NA","NA","NA","NA","NA","NA","NA","NA","NA","NA","NA","NA","NA","44296.47119998117","NA","NA","New experiment","0","0","0","1024"
"undefined","NA","undefined","undefined","undefined","#3d3846","psycho","NA","undefined","undefined","undefined","NA","NA","0","0","0","0","0","0","0","NA","NA","0","NA","0","0","NA","NA","NA","0","NA","NA","NA","NA","NA","0","NA","NA","0","NA","0","0","0","0","NA","0","0","0","NA","Sun Oct 15 20:35:05 2023","NA","The main experiment item","yes","CogPsy_Assignment_With_Instruction.osexp","C:/Users/lukas/OneDrive/Dokumente/Uni/VU/P1/Cognitive Psych/Experiment","no","mono","no","18","no","white","no","21","yes","768","C:/Users/lukas/OneDrive/Dokumente/Uni/VU/P1/Cognitive Psych/Experiment/logs_with/subject-0.csv","NA","Melodramatic Milgram","4.0.5","NA","21","return","NA","NA","return","NA","NA","3187.1976999973413","3187.1976999973413","NA","NA","13882.705399999395","NA","NA","NA","NA","2","NA","1024","2","48000","-16","experiment","0","even","44300.06369997864","NA","26560.77969999751","NA","NA","35695.158699993044","12612.733399990248","NA","NA","NA","NA","NA","12673.307399993064","NA","NA","NA","NA","NA","NA","NA","NA","NA","NA","NA","NA","NA","NA","NA","NA","NA","49774.86869998393","NA","NA","44296.47119998117","NA","NA","New experiment","0","0","0","1024"
"undefined","NA","undefined","undefined","undefined","#3d3846","psycho","NA","undefined","undefined","undefined","NA","NA","0","0","0","0","0","0","0","NA","NA","0","NA","0","0","NA","NA","NA","0","NA","NA","NA","NA","NA","0","NA","NA","0","NA","0","0","0","0","NA","0","0","0","NA","Sun Oct 15 20:35:05 2023","NA","The main experiment item","yes","CogPsy_Assignment_With_Instruction.osexp","C:/Users/lukas/OneDrive/Dokumente/Uni/VU/P1/Cognitive Psych/Experiment","no","mono","no","18","no","white","no","German","yes","768","C:/Users/lukas/OneDrive/Dokumente/Uni/VU/P1/Cognitive Psych/Experiment/logs_with/subject-0.csv","NA","Melodramatic Milgram","4.0.5","NA","German","return","NA","NA","return","NA","NA","3187.1976999973413","3187.1976999973413","NA","NA","13882.705399999395","NA","NA","NA","NA","2","NA","1024","2","48000","-16","experiment","0","even","44300.06369997864","NA","26560.77969999751","59026.65329998126","NA","35695.158699993044","12612.733399990248","NA","NA","NA","NA","NA","12673.307399993064","NA","NA","NA","NA","NA","NA","NA","NA","NA","49778.915699978825","NA","NA","NA","NA","NA","NA","NA","49774.86869998393","NA","NA","44296.47119998117","NA","NA","New experiment","0","0","0","1024"
"undefined","NA","undefined","undefined","undefined","#3d3846","psycho","NA","undefined","undefined","undefined","NA","NA","0","0","0","0","0","0","0","NA","NA","0","NA","0","0","NA","NA","NA","0","NA","NA","NA","NA","NA","0","NA","NA","0","NA","0","0","0","0","NA","0","0","0","NA","Sun Oct 15 20:35:05 2023","NA","The main experiment item","yes","CogPsy_Assignment_With_Instruction.osexp","C:/Users/lukas/OneDrive/Dokumente/Uni/VU/P1/Cognitive Psych/Experiment","no","mono","no","18","no","white","no","Student","yes","768","C:/Users/lukas/OneDrive/Dokumente/Uni/VU/P1/Cognitive Psych/Experiment/logs_with/subject-0.csv","NA","Melodramatic Milgram","4.0.5","NA","Student","return","NA","NA","return","NA","NA","3187.1976999973413","3187.1976999973413","NA","NA","13882.705399999395","NA","NA","NA","NA","2","NA","1024","2","48000","-16","experiment","0","even","44300.06369997864","NA","26560.77969999751","59026.65329998126","NA","35695.158699993044","12612.733399990248","NA","NA","NA","NA","NA","12673.307399993064","NA","NA","NA","NA","NA","NA","NA","NA","NA","49778.915699978825","NA","NA","NA","NA","NA","67714.87469997373","NA","49774.86869998393","NA","NA","44296.47119998117","NA","NA","New experiment","0","0","0","1024"
"0","NA","0","18122","18122","#3d3846","psycho","NA","0","undefined","undefined","0","right","0","0","0","0","0","0","0","0","NA","0","0","0","0","NA","NA","NA","0","NA","NA","NA","NA","NA","0","NA","0","0","0","0","0","0","0","0","0","0","0","NA","Sun Oct 15 20:35:05 2023","50","The main experiment item","yes","CogPsy_Assignment_With_Instruction.osexp","C:/Users/lukas/OneDrive/Dokumente/Uni/VU/P1/Cognitive Psych/Experiment","no","mono","no","18","no","white","no","Student","yes","768","C:/Users/lukas/OneDrive/Dokumente/Uni/VU/P1/Cognitive Psych/Experiment/logs_with/subject-0.csv","real","Melodramatic Milgram","4.0.5","genuine","left","return","NA","return","return","NA","left","18122.488599998178","3187.1976999973413","NA","36120.27900002431","13882.705399999395","NA","18122.488599998178","NA","NA","2","real_50","1024","2","48000","-16","experiment","0","even","44300.06369997864","NA","26560.77969999751","59026.65329998126","NA","35695.158699993044","12612.733399990248","104014.19119999628","NA","NA","104520.72249999037","67755.03809997463","12673.307399993064","NA","NA","NA","NA","NA","NA","NA","NA","NA","49778.915699978825","NA","104521.0584999877","103875.91319999774","104005.8779999963","NA","67714.87469997373","NA","49774.86869998393","122643.8890999998","NA","44296.47119998117","NA","NA","New experiment","0","18122.488599998178","1","1024"
"50","NA","50","13531","13531","#3d3846","psycho","NA","1","undefined","undefined","1","left","0","0","0","0","0","0","0","1","NA","0","1","0","0","NA","NA","NA","0","NA","NA","NA","NA","NA","0","NA","1","0","1","0","0","0","0","1","0","0","0","NA","Sun Oct 15 20:35:05 2023","20","The main experiment item","yes","CogPsy_Assignment_With_Instruction.osexp","C:/Users/lukas/OneDrive/Dokumente/Uni/VU/P1/Cognitive Psych/Experiment","no","mono","no","18","no","white","no","Student","yes","768","C:/Users/lukas/OneDrive/Dokumente/Uni/VU/P1/Cognitive Psych/Experiment/logs_with/subject-0.csv","fake","Melodramatic Milgram","4.0.5","BadInk","left","return","NA","return","return","NA","left","8941.147299978184","3187.1976999973413","NA","36120.27900002431","13882.705399999395","NA","8941.147299978184","NA","NA","2","fake_20","1024","2","48000","-16","experiment","0","even","44300.06369997864","NA","26560.77969999751","59026.65329998126","NA","35695.158699993044","12612.733399990248","123194.24639997305","NA","NA","123699.50249997783","67755.03809997463","12673.307399993064","NA","NA","NA","NA","NA","NA","NA","NA","NA","49778.915699978825","NA","123699.71950000036","103875.91319999774","123188.53169999784","NA","67714.87469997373","NA","49774.86869998393","132641.59429998836","NA","44296.47119998117","NA","NA","New experiment","1","27063.63589997636","2","1024"
"66","NA","66","12745","12745","#3d3846","psycho","NA","1","undefined","undefined","1","left","0","0","0","0","0","0","0","2","NA","0","2","0","0","NA","NA","NA","0","NA","NA","NA","NA","NA","0","NA","2","0","2","0","0","0","0","2","0","0","0","NA","Sun Oct 15 20:35:05 2023","20","The main experiment item","yes","CogPsy_Assignment_With_Instruction.osexp","C:/Users/lukas/OneDrive/Dokumente/Uni/VU/P1/Cognitive Psych/Experiment","no","mono","no","18","no","white","no","Student","yes","768","C:/Users/lukas/OneDrive/Dokumente/Uni/VU/P1/Cognitive Psych/Experiment/logs_with/subject-0.csv","fake","Melodramatic Milgram","4.0.5","BadInk2","left","return","NA","return","return","NA","left","11172.133300016867","3187.1976999973413","NA","36120.27900002431","13882.705399999395","NA","11172.133300016867","NA","NA","2","fake_20","1024","2","48000","-16","experiment","0","even","44300.06369997864","NA","26560.77969999751","59026.65329998126","NA","35695.158699993044","12612.733399990248","132825.5638999981","NA","NA","133331.6225000017","67755.03809997463","12673.307399993064","NA","NA","NA","NA","NA","NA","NA","NA","NA","49778.915699978825","NA","133331.8340999831","103875.91319999774","132821.03609998012","NA","67714.87469997373","NA","49774.86869998393","144504.49829999707","NA","44296.47119998117","NA","NA","New experiment","2","38235.76919999323","3","1024"
"75","NA","75","12540","12540","#3d3846","psycho","NA","1","undefined","undefined","1","left","0","0","0","0","0","0","0","3","NA","0","3","0","0","NA","NA","NA","0","NA","NA","NA","NA","NA","0","NA","3","0","3","0","0","0","0","3","0","0","0","NA","Sun Oct 15 20:35:05 2023","20","The main experiment item","yes","CogPsy_Assignment_With_Instruction.osexp","C:/Users/lukas/OneDrive/Dokumente/Uni/VU/P1/Cognitive Psych/Experiment","no","mono","no","18","no","white","no","Student","yes","768","C:/Users/lukas/OneDrive/Dokumente/Uni/VU/P1/Cognitive Psych/Experiment/logs_with/subject-0.csv","fake","Melodramatic Milgram","4.0.5","BrownDenomination","left","return","NA","return","return","NA","left","11928.19080001209","3187.1976999973413","NA","36120.27900002431","13882.705399999395","NA","11928.19080001209","NA","NA","2","fake_20","1024","2","48000","-16","experiment","0","even","44300.06369997864","NA","26560.77969999751","59026.65329998126","NA","35695.158699993044","12612.733399990248","144743.16769998404","NA","NA","145248.52999998257","67755.03809997463","12673.307399993064","NA","NA","NA","NA","NA","NA","NA","NA","NA","49778.915699978825","NA","145248.74679997447","103875.91319999774","144737.14969999855","NA","67714.87469997373","NA","49774.86869998393","157177.48719998053","NA","44296.47119998117","NA","NA","New experiment","3","50163.96000000532","4","1024"
"60","NA","60","10912","10912","#3d3846","psycho","NA","0","undefined","undefined","0","left","0","0","0","0","0","0","0","4","NA","0","4","0","0","NA","NA","NA","0","NA","NA","NA","NA","NA","0","NA","4","0","4","0","0","0","0","4","0","0","0","NA","Sun Oct 15 20:35:05 2023","20","The main experiment item","yes","CogPsy_Assignment_With_Instruction.osexp","C:/Users/lukas/OneDrive/Dokumente/Uni/VU/P1/Cognitive Psych/Experiment","no","mono","no","18","no","white","no","Student","yes","768","C:/Users/lukas/OneDrive/Dokumente/Uni/VU/P1/Cognitive Psych/Experiment/logs_with/subject-0.csv","fake","Melodramatic Milgram","4.0.5","PurpleDenomination","right","return","NA","return","return","NA","right","4400.741099991137","3187.1976999973413","NA","36120.27900002431","13882.705399999395","NA","4400.741099991137","NA","NA","2","fake_20","1024","2","48000","-16","experiment","0","even","44300.06369997864","NA","26560.77969999751","59026.65329998126","NA","35695.158699993044","12612.733399990248","157382.22919998225","NA","NA","157889.0456999943","67755.03809997463","12673.307399993064","NA","NA","NA","NA","NA","NA","NA","NA","NA","49778.915699978825","NA","157889.2816999869","103875.91319999774","157375.17289997777","NA","67714.87469997373","NA","49774.86869998393","162290.83739998168","NA","44296.47119998117","NA","NA","New experiment","3","54564.701099996455","5","1024"
"50","NA","50","9562","9562","#3d3846","psycho","NA","0","undefined","undefined","0","left","0","0","0","0","0","0","0","5","NA","0","5","0","0","NA","NA","NA","0","NA","NA","NA","NA","NA","0","NA","5","0","5","0","0","0","0","5","0","0","0","NA","Sun Oct 15 20:35:05 2023","50","The main experiment item","yes","CogPsy_Assignment_With_Instruction.osexp","C:/Users/lukas/OneDrive/Dokumente/Uni/VU/P1/Cognitive Psych/Experiment","no","mono","no","18","no","white","no","Student","yes","768","C:/Users/lukas/OneDrive/Dokumente/Uni/VU/P1/Cognitive Psych/Experiment/logs_with/subject-0.csv","fake","Melodramatic Milgram","4.0.5","BadInk","right","return","NA","return","return","NA","right","2809.6940999967046","3187.1976999973413","NA","36120.27900002431","13882.705399999395","NA","2809.6940999967046","NA","NA","2","fake_2_50","1024","2","48000","-16","experiment","0","even","44300.06369997864","NA","26560.77969999751","59026.65329998126","NA","35695.158699993044","12612.733399990248","162479.46639999282","NA","NA","162985.07499997504","67755.03809997463","12673.307399993064","NA","NA","NA","NA","NA","NA","NA","NA","NA","49778.915699978825","NA","162985.33919997863","103875.91319999774","162474.2134999833","NA","67714.87469997373","NA","49774.86869998393","165795.70639997837","NA","44296.47119998117","NA","NA","New experiment","3","57374.39519999316","6","1024"
"42","NA","42","9634","9634","#3d3846","psycho","NA","0","undefined","undefined","0","left","0","0","0","0","0","0","0","6","NA","0","6","0","0","NA","NA","NA","0","NA","NA","NA","NA","NA","0","NA","6","0","6","0","0","0","0","6","0","0","0","NA","Sun Oct 15 20:35:05 2023","20","The main experiment item","yes","CogPsy_Assignment_With_Instruction.osexp","C:/Users/lukas/OneDrive/Dokumente/Uni/VU/P1/Cognitive Psych/Experiment","no","mono","no","18","no","white","no","Student","yes","768","C:/Users/lukas/OneDrive/Dokumente/Uni/VU/P1/Cognitive Psych/Experiment/logs_with/subject-0.csv","fake","Melodramatic Milgram","4.0.5","BadInk2","right","return","NA","return","return","NA","right","10065.015799977118","3187.1976999973413","NA","36120.27900002431","13882.705399999395","NA","10065.015799977118","NA","NA","2","fake_20","1024","2","48000","-16","experiment","0","even","44300.06369997864","NA","26560.77969999751","59026.65329998126","NA","35695.158699993044","12612.733399990248","166039.59939998458","NA","NA","166546.24739999417","67755.03809997463","12673.307399993064","NA","NA","NA","NA","NA","NA","NA","NA","NA","49778.915699978825","NA","166546.4772999985","103875.91319999774","166030.91019997373","NA","67714.87469997373","NA","49774.86869998393","176612.54449997796","NA","44296.47119998117","NA","NA","New experiment","3","67439.41099997028","7","1024"
"37","NA","37","9071","9071","#3d3846","psycho","NA","0","undefined","undefined","0","left","0","0","0","0","0","0","0","7","NA","0","7","0","0","NA","NA","NA","0","NA","NA","NA","NA","NA","0","NA","7","0","7","0","0","0","0","7","0","0","0","NA","Sun Oct 15 20:35:05 2023","50","The main experiment item","yes","CogPsy_Assignment_With_Instruction.osexp","C:/Users/lukas/OneDrive/Dokumente/Uni/VU/P1/Cognitive Psych/Experiment","no","mono","no","18","no","white","no","Student","yes","768","C:/Users/lukas/OneDrive/Dokumente/Uni/VU/P1/Cognitive Psych/Experiment/logs_with/subject-0.csv","fake","Melodramatic Milgram","4.0.5","PurpleDenomination","right","return","NA","return","return","NA","right","5133.566400007112","3187.1976999973413","NA","36120.27900002431","13882.705399999395","NA","5133.566400007112","NA","NA","2","fake_2_50","1024","2","48000","-16","experiment","0","even","44300.06369997864","NA","26560.77969999751","59026.65329998126","NA","35695.158699993044","12612.733399990248","176776.4862999902","NA","NA","177281.71889999066","67755.03809997463","12673.307399993064","NA","NA","NA","NA","NA","NA","NA","NA","NA","49778.915699978825","NA","177281.90269999322","103875.91319999774","176771.62129999488","NA","67714.87469997373","NA","49774.86869998393","182416.52199998498","NA","44296.47119998117","NA","NA","New experiment","3","72572.97739997739","8","1024"
"33","NA","33","8462","8462","#3d3846","psycho","NA","0","undefined","undefined","0","left","0","0","0","0","0","0","0","8","NA","0","8","0","0","NA","NA","NA","0","NA","NA","NA","NA","NA","0","NA","8","0","8","0","0","0","0","8","0","0","0","NA","Sun Oct 15 20:35:05 2023","50","The main experiment item","yes","CogPsy_Assignment_With_Instruction.osexp","C:/Users/lukas/OneDrive/Dokumente/Uni/VU/P1/Cognitive Psych/Experiment","no","mono","no","18","no","white","no","Student","yes","768","C:/Users/lukas/OneDrive/Dokumente/Uni/VU/P1/Cognitive Psych/Experiment/logs_with/subject-0.csv","fake","Melodramatic Milgram","4.0.5","PurpleDenomination","right","return","NA","return","return","NA","right","3588.6718000110704","3187.1976999973413","NA","36120.27900002431","13882.705399999395","NA","3588.6718000110704","NA","NA","2","fake_2_50","1024","2","48000","-16","experiment","0","even","44300.06369997864","NA","26560.77969999751","59026.65329998126","NA","35695.158699993044","12612.733399990248","182564.13839999004","NA","NA","183071.27429998945","67755.03809997463","12673.307399993064","NA","NA","NA","NA","NA","NA","NA","NA","NA","49778.915699978825","NA","183071.5905999823","103875.91319999774","182556.70769998687","NA","67714.87469997373","NA","49774.86869998393","186660.66379999393","NA","44296.47119998117","NA","NA","New experiment","3","76161.64919998846","9","1024"
"30","NA","30","8700","8700","#3d3846","psycho","NA","0","undefined","undefined","0","right","0","0","0","0","0","0","0","9","NA","0","9","0","0","NA","NA","NA","0","NA","NA","NA","NA","NA","0","NA","9","0","9","0","0","0","0","9","0","0","0","NA","Sun Oct 15 20:35:05 2023","50","The main experiment item","yes","CogPsy_Assignment_With_Instruction.osexp","C:/Users/lukas/OneDrive/Dokumente/Uni/VU/P1/Cognitive Psych/Experiment","no","mono","no","18","no","white","no","Student","yes","768","C:/Users/lukas/OneDrive/Dokumente/Uni/VU/P1/Cognitive Psych/Experiment/logs_with/subject-0.csv","real","Melodramatic Milgram","4.0.5","genuine","left","return","NA","return","return","NA","left","10839.384099992458","3187.1976999973413","NA","36120.27900002431","13882.705399999395","NA","10839.384099992458","NA","NA","2","real_20","1024","2","48000","-16","experiment","0","even","44300.06369997864","NA","26560.77969999751","59026.65329998126","NA","35695.158699993044","12612.733399990248","186789.6042999928","NA","NA","187293.72489999514","67755.03809997463","12673.307399993064","NA","NA","NA","NA","NA","NA","NA","NA","NA","49778.915699978825","NA","187293.86889998568","103875.91319999774","186783.99099997478","NA","67714.87469997373","NA","49774.86869998393","198133.671699994","NA","44296.47119998117","NA","NA","New experiment","3","87001.03329998092","10","1024"
"36","NA","36","8102","8102","#3d3846","psycho","NA","1","undefined","undefined","1","left","0","0","0","0","0","0","0","10","NA","0","10","0","0","NA","NA","NA","0","NA","NA","NA","NA","NA","0","NA","10","0","10","0","0","0","0","10","0","0","0","NA","Sun Oct 15 20:35:05 2023","20","The main experiment item","yes","CogPsy_Assignment_With_Instruction.osexp","C:/Users/lukas/OneDrive/Dokumente/Uni/VU/P1/Cognitive Psych/Experiment","no","mono","no","18","no","white","no","Student","yes","768","C:/Users/lukas/OneDrive/Dokumente/Uni/VU/P1/Cognitive Psych/Experiment/logs_with/subject-0.csv","fake","Melodramatic Milgram","4.0.5","DullHologram","left","return","NA","return","return","NA","left","2130.3384999919217","3187.1976999973413","NA","36120.27900002431","13882.705399999395","NA","2130.3384999919217","NA","NA","2","fake_20","1024","2","48000","-16","experiment","0","even","44300.06369997864","NA","26560.77969999751","59026.65329998126","NA","35695.158699993044","12612.733399990248","198335.8202999807","NA","NA","198847.31179999653","67755.03809997463","12673.307399993064","NA","NA","NA","NA","NA","NA","NA","NA","NA","49778.915699978825","NA","198847.68539998913","103875.91319999774","198330.85369999753","NA","67714.87469997373","NA","49774.86869998393","200979.11419998854","NA","44296.47119998117","NA","NA","New experiment","4","89131.37179997284","11","1024"
"33","NA","33","7668","7668","#3d3846","psycho","NA","0","undefined","undefined","0","left","0","0","0","0","0","0","0","11","NA","0","11","0","0","NA","NA","NA","0","NA","NA","NA","NA","NA","0","NA","11","0","11","0","0","0","0","11","0","0","0","NA","Sun Oct 15 20:35:05 2023","50","The main experiment item","yes","CogPsy_Assignment_With_Instruction.osexp","C:/Users/lukas/OneDrive/Dokumente/Uni/VU/P1/Cognitive Psych/Experiment","no","mono","no","18","no","white","no","Student","yes","768","C:/Users/lukas/OneDrive/Dokumente/Uni/VU/P1/Cognitive Psych/Experiment/logs_with/subject-0.csv","fake","Melodramatic Milgram","4.0.5","PurpleDenomination2","right","return","NA","return","return","NA","right","2884.7718999895733","3187.1976999973413","NA","36120.27900002431","13882.705399999395","NA","2884.7718999895733","NA","NA","2","fake_2_50","1024","2","48000","-16","experiment","0","even","44300.06369997864","NA","26560.77969999751","59026.65329998126","NA","35695.158699993044","12612.733399990248","201252.1375999786","NA","NA","201758.8579999865","67755.03809997463","12673.307399993064","NA","NA","NA","NA","NA","NA","NA","NA","NA","49778.915699978825","NA","201759.07400000142","103875.91319999774","201242.28029997903","NA","67714.87469997373","NA","49774.86869998393","204644.59959999658","NA","44296.47119998117","NA","NA","New experiment","4","92016.14369996241","12","1024"
"38","NA","38","8015","8015","#3d3846","psycho","NA","1","undefined","undefined","1","left","0","0","0","0","0","0","0","12","NA","0","12","0","0","NA","NA","NA","0","NA","NA","NA","NA","NA","0","NA","12","0","12","0","0","0","0","12","0","0","0","NA","Sun Oct 15 20:35:05 2023","50","The main experiment item","yes","CogPsy_Assignment_With_Instruction.osexp","C:/Users/lukas/OneDrive/Dokumente/Uni/VU/P1/Cognitive Psych/Experiment","no","mono","no","18","no","white","no","Student","yes","768","C:/Users/lukas/OneDrive/Dokumente/Uni/VU/P1/Cognitive Psych/Experiment/logs_with/subject-0.csv","fake","Melodramatic Milgram","4.0.5","GreyDenomination","left","return","NA","return","return","NA","left","12189.863099978538","3187.1976999973413","NA","36120.27900002431","13882.705399999395","NA","12189.863099978538","NA","NA","2","fake_2_50","1024","2","48000","-16","experiment","0","even","44300.06369997864","NA","26560.77969999751","59026.65329998126","NA","35695.158699993044","12612.733399990248","204889.29469999857","NA","NA","205394.61899999878","67755.03809997463","12673.307399993064","NA","NA","NA","NA","NA","NA","NA","NA","NA","49778.915699978825","NA","205394.84049999737","103875.91319999774","204882.58899998618","NA","67714.87469997373","NA","49774.86869998393","217585.50869999453","NA","44296.47119998117","NA","NA","New experiment","5","104206.00679994095","13","1024"
"42","NA","42","7679","7679","#3d3846","psycho","NA","1","undefined","undefined","1","right","0","0","0","0","0","0","0","13","NA","0","13","0","0","NA","NA","NA","0","NA","NA","NA","NA","NA","0","NA","13","0","13","0","0","0","0","13","0","0","0","NA","Sun Oct 15 20:35:05 2023","20","The main experiment item","yes","CogPsy_Assignment_With_Instruction.osexp","C:/Users/lukas/OneDrive/Dokumente/Uni/VU/P1/Cognitive Psych/Experiment","no","mono","no","18","no","white","no","Student","yes","768","C:/Users/lukas/OneDrive/Dokumente/Uni/VU/P1/Cognitive Psych/Experiment/logs_with/subject-0.csv","real","Melodramatic Milgram","4.0.5","genuine","right","return","NA","return","return","NA","right","3306.1007000214886","3187.1976999973413","NA","36120.27900002431","13882.705399999395","NA","3306.1007000214886","NA","NA","2","real_20","1024","2","48000","-16","experiment","0","even","44300.06369997864","NA","26560.77969999751","59026.65329998126","NA","35695.158699993044","12612.733399990248","217767.25199999055","NA","NA","218274.0700999857","67755.03809997463","12673.307399993064","NA","NA","NA","NA","NA","NA","NA","NA","NA","49778.915699978825","NA","218274.32889997726","103875.91319999774","217761.36799997767","NA","67714.87469997373","NA","49774.86869998393","221581.0542999825","NA","44296.47119998117","NA","NA","New experiment","6","107512.10749996244","14","1024"
"46","NA","46","7413","7413","#3d3846","psycho","NA","1","undefined","undefined","1","right","0","0","0","0","0","0","0","14","NA","0","14","0","0","NA","NA","NA","0","NA","NA","NA","NA","NA","0","NA","14","0","14","0","0","0","0","14","0","0","0","NA","Sun Oct 15 20:35:05 2023","50","The main experiment item","yes","CogPsy_Assignment_With_Instruction.osexp","C:/Users/lukas/OneDrive/Dokumente/Uni/VU/P1/Cognitive Psych/Experiment","no","mono","no","18","no","white","no","Student","yes","768","C:/Users/lukas/OneDrive/Dokumente/Uni/VU/P1/Cognitive Psych/Experiment/logs_with/subject-0.csv","real","Melodramatic Milgram","4.0.5","photo","right","return","NA","return","return","NA","right","3688.022499991348","3187.1976999973413","NA","36120.27900002431","13882.705399999395","NA","3688.022499991348","NA","NA","2","real_50","1024","2","48000","-16","experiment","0","even","44300.06369997864","NA","26560.77969999751","59026.65329998126","NA","35695.158699993044","12612.733399990248","221781.30309999688","NA","NA","222288.02349997568","67755.03809997463","12673.307399993064","NA","NA","NA","NA","NA","NA","NA","NA","NA","49778.915699978825","NA","222288.3201999939","103875.91319999774","221776.92039997783","NA","67714.87469997373","NA","49774.86869998393","225976.9471999898","NA","44296.47119998117","NA","NA","New experiment","7","111200.12999995379","15","1024"
"50","NA","50","7052","7052","#3d3846","psycho","NA","1","undefined","undefined","1","right","0","0","0","0","0","0","0","15","NA","0","15","0","0","NA","NA","NA","0","NA","NA","NA","NA","NA","0","NA","15","0","15","0","0","0","0","15","0","0","0","NA","Sun Oct 15 20:35:05 2023","50","The main experiment item","yes","CogPsy_Assignment_With_Instruction.osexp","C:/Users/lukas/OneDrive/Dokumente/Uni/VU/P1/Cognitive Psych/Experiment","no","mono","no","18","no","white","no","Student","yes","768","C:/Users/lukas/OneDrive/Dokumente/Uni/VU/P1/Cognitive Psych/Experiment/logs_with/subject-0.csv","real","Melodramatic Milgram","4.0.5","photo","right","return","NA","return","return","NA","right","1637.0162999955937","3187.1976999973413","NA","36120.27900002431","13882.705399999395","NA","1637.0162999955937","NA","NA","2","real_50","1024","2","48000","-16","experiment","0","even","44300.06369997864","NA","26560.77969999751","59026.65329998126","NA","35695.158699993044","12612.733399990248","226165.58879998047","NA","NA","226672.70529997768","67755.03809997463","12673.307399993064","NA","NA","NA","NA","NA","NA","NA","NA","NA","49778.915699978825","NA","226673.03269999684","103875.91319999774","226160.65889998572","NA","67714.87469997373","NA","49774.86869998393","228310.6508999772","NA","44296.47119998117","NA","NA","New experiment","8","112837.14629994938","16","1024"
"47","NA","47","6804","6804","#3d3846","psycho","NA","0","undefined","undefined","0","left","0","0","0","0","0","0","0","16","NA","0","16","0","0","NA","NA","NA","0","NA","NA","NA","NA","NA","0","NA","16","0","16","0","0","0","0","16","0","0","0","NA","Sun Oct 15 20:35:05 2023","50","The main experiment item","yes","CogPsy_Assignment_With_Instruction.osexp","C:/Users/lukas/OneDrive/Dokumente/Uni/VU/P1/Cognitive Psych/Experiment","no","mono","no","18","no","white","no","Student","yes","768","C:/Users/lukas/OneDrive/Dokumente/Uni/VU/P1/Cognitive Psych/Experiment/logs_with/subject-0.csv","fake","Melodramatic Milgram","4.0.5","PurpleDenomination2","right","return","NA","return","return","NA","right","2841.2815000046976","3187.1976999973413","NA","36120.27900002431","13882.705399999395","NA","2841.2815000046976","NA","NA","2","fake_2_50","1024","2","48000","-16","experiment","0","even","44300.06369997864","NA","26560.77969999751","59026.65329998126","NA","35695.158699993044","12612.733399990248","228520.7479999808","NA","NA","229027.35659998143","67755.03809997463","12673.307399993064","NA","NA","NA","NA","NA","NA","NA","NA","NA","49778.915699978825","NA","229027.61949997512","103875.91319999774","228512.22619999317","NA","67714.87469997373","NA","49774.86869998393","231869.721199997","NA","44296.47119998117","NA","NA","New experiment","8","115678.42779995408","17","1024"
"44","NA","44","6562","6562","#3d3846","psycho","NA","0","undefined","undefined","0","right","0","0","0","0","0","0","0","17","NA","0","17","0","0","NA","NA","NA","0","NA","NA","NA","NA","NA","0","NA","17","0","17","0","0","0","0","17","0","0","0","NA","Sun Oct 15 20:35:05 2023","20","The main experiment item","yes","CogPsy_Assignment_With_Instruction.osexp","C:/Users/lukas/OneDrive/Dokumente/Uni/VU/P1/Cognitive Psych/Experiment","no","mono","no","18","no","white","no","Student","yes","768","C:/Users/lukas/OneDrive/Dokumente/Uni/VU/P1/Cognitive Psych/Experiment/logs_with/subject-0.csv","real","Melodramatic Milgram","4.0.5","photo","left","return","NA","return","return","NA","left","2440.9640000085346","3187.1976999973413","NA","36120.27900002431","13882.705399999395","NA","2440.9640000085346","NA","NA","2","real_20","1024","2","48000","-16","experiment","0","even","44300.06369997864","NA","26560.77969999751","59026.65329998126","NA","35695.158699993044","12612.733399990248","232075.9384999983","NA","NA","232580.4806999804","67755.03809997463","12673.307399993064","NA","NA","NA","NA","NA","NA","NA","NA","NA","49778.915699978825","NA","232580.64429997467","103875.91319999774","232070.4868999892","NA","67714.87469997373","NA","49774.86869998393","235022.43869999074","NA","44296.47119998117","NA","NA","New experiment","8","118119.39179996261","18","1024"
"42","NA","42","6307","6307","#3d3846","psycho","NA","0","undefined","undefined","0","right","0","0","0","0","0","0","0","18","NA","0","18","0","0","NA","NA","NA","0","NA","NA","NA","NA","NA","0","NA","18","0","18","0","0","0","0","18","0","0","0","NA","Sun Oct 15 20:35:05 2023","50","The main experiment item","yes","CogPsy_Assignment_With_Instruction.osexp","C:/Users/lukas/OneDrive/Dokumente/Uni/VU/P1/Cognitive Psych/Experiment","no","mono","no","18","no","white","no","Student","yes","768","C:/Users/lukas/OneDrive/Dokumente/Uni/VU/P1/Cognitive Psych/Experiment/logs_with/subject-0.csv","real","Melodramatic Milgram","4.0.5","photo_2","left","return","NA","return","return","NA","left","1728.7604000011925","3187.1976999973413","NA","36120.27900002431","13882.705399999395","NA","1728.7604000011925","NA","NA","2","real_50","1024","2","48000","-16","experiment","0","even","44300.06369997864","NA","26560.77969999751","59026.65329998126","NA","35695.158699993044","12612.733399990248","235186.3222999964","NA","NA","235691.32899999386","67755.03809997463","12673.307399993064","NA","NA","NA","NA","NA","NA","NA","NA","NA","49778.915699978825","NA","235691.62119997782","103875.91319999774","235181.51289998787","NA","67714.87469997373","NA","49774.86869998393","237420.89199999464","NA","44296.47119998117","NA","NA","New experiment","8","119848.1521999638","19","1024"
"40","NA","40","6048","6048","#3d3846","psycho","NA","0","undefined","undefined","0","right","0","0","0","0","0","0","0","19","NA","0","19","0","0","NA","NA","NA","0","NA","NA","NA","NA","NA","0","NA","19","0","19","0","0","0","0","19","0","0","0","NA","Sun Oct 15 20:35:05 2023","20","The main experiment item","yes","CogPsy_Assignment_With_Instruction.osexp","C:/Users/lukas/OneDrive/Dokumente/Uni/VU/P1/Cognitive Psych/Experiment","no","mono","no","18","no","white","no","Student","yes","768","C:/Users/lukas/OneDrive/Dokumente/Uni/VU/P1/Cognitive Psych/Experiment/logs_with/subject-0.csv","real","Melodramatic Milgram","4.0.5","photo","left","return","NA","return","return","NA","left","1128.2909000001382","3187.1976999973413","NA","36120.27900002431","13882.705399999395","NA","1128.2909000001382","NA","NA","2","real_20","1024","2","48000","-16","experiment","0","even","44300.06369997864","NA","26560.77969999751","59026.65329998126","NA","35695.158699993044","12612.733399990248","237624.25579997944","NA","NA","238130.23209999665","67755.03809997463","12673.307399993064","NA","NA","NA","NA","NA","NA","NA","NA","NA","49778.915699978825","NA","238130.70219999645","103875.91319999774","237619.18729997706","NA","67714.87469997373","NA","49774.86869998393","239259.8781999841","NA","44296.47119998117","NA","NA","New experiment","8","120976.44309996394","20","1024"
"42","NA","42","5857","5857","#3d3846","psycho","NA","1","undefined","undefined","1","right","0","0","0","0","0","0","0","20","NA","0","20","0","0","NA","NA","NA","0","NA","NA","NA","NA","NA","0","NA","20","0","20","0","0","0","0","20","0","0","0","NA","Sun Oct 15 20:35:05 2023","20","The main experiment item","yes","CogPsy_Assignment_With_Instruction.osexp","C:/Users/lukas/OneDrive/Dokumente/Uni/VU/P1/Cognitive Psych/Experiment","no","mono","no","18","no","white","no","Student","yes","768","C:/Users/lukas/OneDrive/Dokumente/Uni/VU/P1/Cognitive Psych/Experiment/logs_with/subject-0.csv","real","Melodramatic Milgram","4.0.5","genuine","right","return","NA","return","return","NA","right","2020.9773000096902","3187.1976999973413","NA","36120.27900002431","13882.705399999395","NA","2020.9773000096902","NA","NA","2","real_20","1024","2","48000","-16","experiment","0","even","44300.06369997864","NA","26560.77969999751","59026.65329998126","NA","35695.158699993044","12612.733399990248","239490.03139999695","NA","NA","239995.54849998094","67755.03809997463","12673.307399993064","NA","NA","NA","NA","NA","NA","NA","NA","NA","49778.915699978825","NA","239995.7788999891","103875.91319999774","239483.9767999947","NA","67714.87469997373","NA","49774.86869998393","242017.7612999978","NA","44296.47119998117","NA","NA","New experiment","9","122997.42039997363","21","1024"
"40","NA","40","5697","5697","#3d3846","psycho","NA","0","undefined","undefined","0","right","0","0","0","0","0","0","0","21","NA","0","21","0","0","NA","NA","NA","0","NA","NA","NA","NA","NA","0","NA","21","0","21","0","0","0","0","21","0","0","0","NA","Sun Oct 15 20:35:05 2023","50","The main experiment item","yes","CogPsy_Assignment_With_Instruction.osexp","C:/Users/lukas/OneDrive/Dokumente/Uni/VU/P1/Cognitive Psych/Experiment","no","mono","no","18","no","white","no","Student","yes","768","C:/Users/lukas/OneDrive/Dokumente/Uni/VU/P1/Cognitive Psych/Experiment/logs_with/subject-0.csv","real","Melodramatic Milgram","4.0.5","photo_2","left","return","NA","return","return","NA","left","2351.0011000034865","3187.1976999973413","NA","36120.27900002431","13882.705399999395","NA","2351.0011000034865","NA","NA","2","real_50","1024","2","48000","-16","experiment","0","even","44300.06369997864","NA","26560.77969999751","59026.65329998126","NA","35695.158699993044","12612.733399990248","242178.96739998832","NA","NA","242685.55399999605","67755.03809997463","12673.307399993064","NA","NA","NA","NA","NA","NA","NA","NA","NA","49778.915699978825","NA","242685.79429999227","103875.91319999774","242172.68439999316","NA","67714.87469997373","NA","49774.86869998393","245037.64379999484","NA","44296.47119998117","NA","NA","New experiment","9","125348.42149997712","22","1024"
"43","NA","43","5574","5574","#3d3846","psycho","NA","1","undefined","undefined","1","left","0","0","0","0","0","0","0","22","NA","0","22","0","0","NA","NA","NA","0","NA","NA","NA","NA","NA","0","NA","22","0","22","0","0","0","0","22","0","0","0","NA","Sun Oct 15 20:35:05 2023","20","The main experiment item","yes","CogPsy_Assignment_With_Instruction.osexp","C:/Users/lukas/OneDrive/Dokumente/Uni/VU/P1/Cognitive Psych/Experiment","no","mono","no","18","no","white","no","Student","yes","768","C:/Users/lukas/OneDrive/Dokumente/Uni/VU/P1/Cognitive Psych/Experiment/logs_with/subject-0.csv","fake","Melodramatic Milgram","4.0.5","DullHologram2","left","return","NA","return","return","NA","left","2862.8258999960963","3187.1976999973413","NA","36120.27900002431","13882.705399999395","NA","2862.8258999960963","NA","NA","2","fake_20","1024","2","48000","-16","experiment","0","even","44300.06369997864","NA","26560.77969999751","59026.65329998126","NA","35695.158699993044","12612.733399990248","245224.31629998027","NA","NA","245728.2516999985","67755.03809997463","12673.307399993064","NA","NA","NA","NA","NA","NA","NA","NA","NA","49778.915699978825","NA","245728.41039998457","103875.91319999774","245216.28669998609","NA","67714.87469997373","NA","49774.86869998393","248591.78589997464","NA","44296.47119998117","NA","NA","New experiment","10","128211.24739997322","23","1024"
"41","NA","41","5420","5420","#3d3846","psycho","NA","0","undefined","undefined","0","left","0","0","0","0","0","0","0","23","NA","0","23","0","0","NA","NA","NA","0","NA","NA","NA","NA","NA","0","NA","23","0","23","0","0","0","0","23","0","0","0","NA","Sun Oct 15 20:35:05 2023","20","The main experiment item","yes","CogPsy_Assignment_With_Instruction.osexp","C:/Users/lukas/OneDrive/Dokumente/Uni/VU/P1/Cognitive Psych/Experiment","no","mono","no","18","no","white","no","Student","yes","768","C:/Users/lukas/OneDrive/Dokumente/Uni/VU/P1/Cognitive Psych/Experiment/logs_with/subject-0.csv","fake","Melodramatic Milgram","4.0.5","bottom_left","right","return","NA","return","return","NA","right","1870.9366999974009","3187.1976999973413","NA","36120.27900002431","13882.705399999395","NA","1870.9366999974009","NA","NA","2","fake_1_20","1024","2","48000","-16","experiment","0","even","44300.06369997864","NA","26560.77969999751","59026.65329998126","NA","35695.158699993044","12612.733399990248","248744.65759997838","NA","NA","249249.51499997405","67755.03809997463","12673.307399993064","NA","NA","NA","NA","NA","NA","NA","NA","NA","49778.915699978825","NA","249249.72699998762","103875.91319999774","248739.38449998968","NA","67714.87469997373","NA","49774.86869998393","251121.27029997646","NA","44296.47119998117","NA","NA","New experiment","10","130082.18409997062","24","1024"
"44","NA","44","5251","5251","#3d3846","psycho","NA","1","undefined","undefined","1","left","0","0","0","0","0","0","0","24","NA","0","24","0","0","NA","NA","NA","0","NA","NA","NA","NA","NA","0","NA","24","0","24","0","0","0","0","24","0","0","0","NA","Sun Oct 15 20:35:05 2023","50","The main experiment item","yes","CogPsy_Assignment_With_Instruction.osexp","C:/Users/lukas/OneDrive/Dokumente/Uni/VU/P1/Cognitive Psych/Experiment","no","mono","no","18","no","white","no","Student","yes","768","C:/Users/lukas/OneDrive/Dokumente/Uni/VU/P1/Cognitive Psych/Experiment/logs_with/subject-0.csv","fake","Melodramatic Milgram","4.0.5","silver_strip","left","return","NA","return","return","NA","left","1192.9785000102129","3187.1976999973413","NA","36120.27900002431","13882.705399999395","NA","1192.9785000102129","NA","NA","2","fake_2_50","1024","2","48000","-16","experiment","0","even","44300.06369997864","NA","26560.77969999751","59026.65329998126","NA","35695.158699993044","12612.733399990248","251271.21999999508","NA","NA","251777.81699999468","67755.03809997463","12673.307399993064","NA","NA","NA","NA","NA","NA","NA","NA","NA","49778.915699978825","NA","251778.10909997788","103875.91319999774","251265.37469998584","NA","67714.87469997373","NA","49774.86869998393","252971.59689999535","NA","44296.47119998117","NA","NA","New experiment","11","131275.16259998083","25","1024"
"46","NA","46","5158","5158","#3d3846","psycho","NA","1","undefined","undefined","1","left","0","0","0","0","0","0","0","25","NA","0","25","0","0","NA","NA","NA","0","NA","NA","NA","NA","NA","0","NA","25","0","25","0","0","0","0","25","0","0","0","NA","Sun Oct 15 20:35:05 2023","20","The main experiment item","yes","CogPsy_Assignment_With_Instruction.osexp","C:/Users/lukas/OneDrive/Dokumente/Uni/VU/P1/Cognitive Psych/Experiment","no","mono","no","18","no","white","no","Student","yes","768","C:/Users/lukas/OneDrive/Dokumente/Uni/VU/P1/Cognitive Psych/Experiment/logs_with/subject-0.csv","fake","Melodramatic Milgram","4.0.5","DullHologram","left","return","NA","return","return","NA","left","2833.608600019943","3187.1976999973413","NA","36120.27900002431","13882.705399999395","NA","2833.608600019943","NA","NA","2","fake_20","1024","2","48000","-16","experiment","0","even","44300.06369997864","NA","26560.77969999751","59026.65329998126","NA","35695.158699993044","12612.733399990248","253172.99959997763","NA","NA","253679.20610000147","67755.03809997463","12673.307399993064","NA","NA","NA","NA","NA","NA","NA","NA","NA","49778.915699978825","NA","253679.47009997442","103875.91319999774","253167.21419998794","NA","67714.87469997373","NA","49774.86869998393","256513.85389998904","NA","44296.47119998117","NA","NA","New experiment","12","134108.77120000077","26","1024"
"44","NA","44","5044","5044","#3d3846","psycho","NA","0","undefined","undefined","0","right","0","0","0","0","0","0","0","26","NA","0","26","0","0","NA","NA","NA","0","NA","NA","NA","NA","NA","0","NA","26","0","26","0","0","0","0","26","0","0","0","NA","Sun Oct 15 20:35:05 2023","50","The main experiment item","yes","CogPsy_Assignment_With_Instruction.osexp","C:/Users/lukas/OneDrive/Dokumente/Uni/VU/P1/Cognitive Psych/Experiment","no","mono","no","18","no","white","no","Student","yes","768","C:/Users/lukas/OneDrive/Dokumente/Uni/VU/P1/Cognitive Psych/Experiment/logs_with/subject-0.csv","real","Melodramatic Milgram","4.0.5","photo_2","left","return","NA","return","return","NA","left","2098.3520000008866","3187.1976999973413","NA","36120.27900002431","13882.705399999395","NA","2098.3520000008866","NA","NA","2","real_50","1024","2","48000","-16","experiment","0","even","44300.06369997864","NA","26560.77969999751","59026.65329998126","NA","35695.158699993044","12612.733399990248","256648.7691999937","NA","NA","257154.1361999989","67755.03809997463","12673.307399993064","NA","NA","NA","NA","NA","NA","NA","NA","NA","49778.915699978825","NA","257154.37249999377","103875.91319999774","256641.93789998535","NA","67714.87469997373","NA","49774.86869998393","259253.58289998258","NA","44296.47119998117","NA","NA","New experiment","12","136207.12320000166","27","1024"
"46","NA","46","4900","4900","#3d3846","psycho","NA","1","undefined","undefined","1","left","0","0","0","0","0","0","0","27","NA","0","27","0","0","NA","NA","NA","0","NA","NA","NA","NA","NA","0","NA","27","0","27","0","0","0","0","27","0","0","0","NA","Sun Oct 15 20:35:05 2023","50","The main experiment item","yes","CogPsy_Assignment_With_Instruction.osexp","C:/Users/lukas/OneDrive/Dokumente/Uni/VU/P1/Cognitive Psych/Experiment","no","mono","no","18","no","white","no","Student","yes","768","C:/Users/lukas/OneDrive/Dokumente/Uni/VU/P1/Cognitive Psych/Experiment/logs_with/subject-0.csv","fake","Melodramatic Milgram","4.0.5","silver_strip","left","return","NA","return","return","NA","left","996.2171000079252","3187.1976999973413","NA","36120.27900002431","13882.705399999395","NA","996.2171000079252","NA","NA","2","fake_2_50","1024","2","48000","-16","experiment","0","even","44300.06369997864","NA","26560.77969999751","59026.65329998126","NA","35695.158699993044","12612.733399990248","259426.426799997","NA","NA","259932.79419999453","67755.03809997463","12673.307399993064","NA","NA","NA","NA","NA","NA","NA","NA","NA","49778.915699978825","NA","259933.0270999926","103875.91319999774","259418.27519997605","NA","67714.87469997373","NA","49774.86869998393","260930.06359998253","NA","44296.47119998117","NA","NA","New experiment","13","137203.3403000096","28","1024"
"48","NA","48","4866","4866","#3d3846","psycho","NA","1","undefined","undefined","1","right","0","0","0","0","0","0","0","28","NA","0","28","0","0","NA","NA","NA","0","NA","NA","NA","NA","NA","0","NA","28","0","28","0","0","0","0","28","0","0","0","NA","Sun Oct 15 20:35:05 2023","50","The main experiment item","yes","CogPsy_Assignment_With_Instruction.osexp","C:/Users/lukas/OneDrive/Dokumente/Uni/VU/P1/Cognitive Psych/Experiment","no","mono","no","18","no","white","no","Student","yes","768","C:/Users/lukas/OneDrive/Dokumente/Uni/VU/P1/Cognitive Psych/Experiment/logs_with/subject-0.csv","real","Melodramatic Milgram","4.0.5","genuine","right","return","NA","return","return","NA","right","3912.9563000169583","3187.1976999973413","NA","36120.27900002431","13882.705399999395","NA","3912.9563000169583","NA","NA","2","real_50","1024","2","48000","-16","experiment","0","even","44300.06369997864","NA","26560.77969999751","59026.65329998126","NA","35695.158699993044","12612.733399990248","261129.41029999638","NA","NA","261636.52949998504","67755.03809997463","12673.307399993064","NA","NA","NA","NA","NA","NA","NA","NA","NA","49778.915699978825","NA","261636.7965999816","103875.91319999774","261121.29419998382","NA","67714.87469997373","NA","49774.86869998393","265550.5040999851","NA","44296.47119998117","NA","NA","New experiment","14","141116.29660002654","29","1024"
"46","NA","46","4785","4785","#3d3846","psycho","NA","0","undefined","undefined","0","left","0","0","0","0","0","0","0","29","NA","0","29","0","0","NA","NA","NA","0","NA","NA","NA","NA","NA","0","NA","29","0","29","0","0","0","0","29","0","0","0","NA","Sun Oct 15 20:35:05 2023","20","The main experiment item","yes","CogPsy_Assignment_With_Instruction.osexp","C:/Users/lukas/OneDrive/Dokumente/Uni/VU/P1/Cognitive Psych/Experiment","no","mono","no","18","no","white","no","Student","yes","768","C:/Users/lukas/OneDrive/Dokumente/Uni/VU/P1/Cognitive Psych/Experiment/logs_with/subject-0.csv","fake","Melodramatic Milgram","4.0.5","BrownDenomination","right","return","NA","return","return","NA","right","2459.7845999815036","3187.1976999973413","NA","36120.27900002431","13882.705399999395","NA","2459.7845999815036","NA","NA","2","fake_20","1024","2","48000","-16","experiment","0","even","44300.06369997864","NA","26560.77969999751","59026.65329998126","NA","35695.158699993044","12612.733399990248","265707.4481000018","NA","NA","266212.3242999951","67755.03809997463","12673.307399993064","NA","NA","NA","NA","NA","NA","NA","NA","NA","49778.915699978825","NA","266212.69960000063","103875.91319999774","265701.33319997694","NA","67714.87469997373","NA","49774.86869998393","268673.2017999748","NA","44296.47119998117","NA","NA","New experiment","14","143576.08120000805","30","1024"
"45","NA","45","4668","4668","#3d3846","psycho","NA","0","undefined","undefined","0","right","0","0","0","0","0","0","0","30","NA","0","30","0","0","NA","NA","NA","0","NA","NA","NA","NA","NA","0","NA","30","0","30","0","0","0","0","30","0","0","0","NA","Sun Oct 15 20:35:05 2023","20","The main experiment item","yes","CogPsy_Assignment_With_Instruction.osexp","C:/Users/lukas/OneDrive/Dokumente/Uni/VU/P1/Cognitive Psych/Experiment","no","mono","no","18","no","white","no","Student","yes","768","C:/Users/lukas/OneDrive/Dokumente/Uni/VU/P1/Cognitive Psych/Experiment/logs_with/subject-0.csv","real","Melodramatic Milgram","4.0.5","photo","left","return","NA","return","return","NA","left","1135.0321999925654","3187.1976999973413","NA","36120.27900002431","13882.705399999395","NA","1135.0321999925654","NA","NA","2","real_20","1024","2","48000","-16","experiment","0","even","44300.06369997864","NA","26560.77969999751","59026.65329998126","NA","35695.158699993044","12612.733399990248","268941.5256999782","NA","NA","269448.83599999594","67755.03809997463","12673.307399993064","NA","NA","NA","NA","NA","NA","NA","NA","NA","49778.915699978825","NA","269449.09439998446","103875.91319999774","268934.422499995","NA","67714.87469997373","NA","49774.86869998393","270585.58239997365","NA","44296.47119998117","NA","NA","New experiment","14","144711.1134000006","31","1024"
"46","NA","46","4545","4545","#3d3846","psycho","NA","1","undefined","undefined","1","right","0","0","0","0","0","0","0","31","NA","0","31","0","0","NA","NA","NA","0","NA","NA","NA","NA","NA","0","NA","31","0","31","0","0","0","0","31","0","0","0","NA","Sun Oct 15 20:35:05 2023","20","The main experiment item","yes","CogPsy_Assignment_With_Instruction.osexp","C:/Users/lukas/OneDrive/Dokumente/Uni/VU/P1/Cognitive Psych/Experiment","no","mono","no","18","no","white","no","Student","yes","768","C:/Users/lukas/OneDrive/Dokumente/Uni/VU/P1/Cognitive Psych/Experiment/logs_with/subject-0.csv","real","Melodramatic Milgram","4.0.5","genuine","right","return","NA","return","return","NA","right","728.9453000121284","3187.1976999973413","NA","36120.27900002431","13882.705399999395","NA","728.9453000121284","NA","NA","2","real_20","1024","2","48000","-16","experiment","0","even","44300.06369997864","NA","26560.77969999751","59026.65329998126","NA","35695.158699993044","12612.733399990248","270730.93099999824","NA","NA","271236.6879999754","67755.03809997463","12673.307399993064","NA","NA","NA","NA","NA","NA","NA","NA","NA","49778.915699978825","NA","271236.886699975","103875.91319999774","270725.563999993","NA","67714.87469997373","NA","49774.86869998393","271966.4017999894","NA","44296.47119998117","NA","NA","New experiment","15","145440.05870001274","32","1024"
"48","NA","48","4444","4444","#3d3846","psycho","NA","1","undefined","undefined","1","left","0","0","0","0","0","0","0","32","NA","0","32","0","0","NA","NA","NA","0","NA","NA","NA","NA","NA","0","NA","32","0","32","0","0","0","0","32","0","0","0","NA","Sun Oct 15 20:35:05 2023","20","The main experiment item","yes","CogPsy_Assignment_With_Instruction.osexp","C:/Users/lukas/OneDrive/Dokumente/Uni/VU/P1/Cognitive Psych/Experiment","no","mono","no","18","no","white","no","Student","yes","768","C:/Users/lukas/OneDrive/Dokumente/Uni/VU/P1/Cognitive Psych/Experiment/logs_with/subject-0.csv","fake","Melodramatic Milgram","4.0.5","silver_strip","left","return","NA","return","return","NA","left","1235.117900010664","3187.1976999973413","NA","36120.27900002431","13882.705399999395","NA","1235.117900010664","NA","NA","2","fake_2_20","1024","2","48000","-16","experiment","0","even","44300.06369997864","NA","26560.77969999751","59026.65329998126","NA","35695.158699993044","12612.733399990248","272133.3115999878","NA","NA","272638.5849999788","67755.03809997463","12673.307399993064","NA","NA","NA","NA","NA","NA","NA","NA","NA","49778.915699978825","NA","272638.9825999795","103875.91319999774","272127.56539997645","NA","67714.87469997373","NA","49774.86869998393","273875.1085999829","NA","44296.47119998117","NA","NA","New experiment","16","146675.1766000234","33","1024"
"47","NA","47","4337","4337","#3d3846","psycho","NA","0","undefined","undefined","0","left","0","0","0","0","0","0","0","33","NA","0","33","0","0","NA","NA","NA","0","NA","NA","NA","NA","NA","0","NA","33","0","33","0","0","0","0","33","0","0","0","NA","Sun Oct 15 20:35:05 2023","20","The main experiment item","yes","CogPsy_Assignment_With_Instruction.osexp","C:/Users/lukas/OneDrive/Dokumente/Uni/VU/P1/Cognitive Psych/Experiment","no","mono","no","18","no","white","no","Student","yes","768","C:/Users/lukas/OneDrive/Dokumente/Uni/VU/P1/Cognitive Psych/Experiment/logs_with/subject-0.csv","fake","Melodramatic Milgram","4.0.5","bottom_left","right","return","NA","return","return","NA","right","797.8449999936856","3187.1976999973413","NA","36120.27900002431","13882.705399999395","NA","797.8449999936856","NA","NA","2","fake_1_20","1024","2","48000","-16","experiment","0","even","44300.06369997864","NA","26560.77969999751","59026.65329998126","NA","35695.158699993044","12612.733399990248","274007.78729998274","NA","NA","274514.36049997574","67755.03809997463","12673.307399993064","NA","NA","NA","NA","NA","NA","NA","NA","NA","49778.915699978825","NA","274514.6330999851","103875.91319999774","274003.3113999816","NA","67714.87469997373","NA","49774.86869998393","275313.31169998157","NA","44296.47119998117","NA","NA","New experiment","16","147473.0216000171","34","1024"
"45","NA","45","4247","4247","#3d3846","psycho","NA","0","undefined","undefined","0","right","0","0","0","0","0","0","0","34","NA","0","34","0","0","NA","NA","NA","0","NA","NA","NA","NA","NA","0","NA","34","0","34","0","0","0","0","34","0","0","0","NA","Sun Oct 15 20:35:05 2023","20","The main experiment item","yes","CogPsy_Assignment_With_Instruction.osexp","C:/Users/lukas/OneDrive/Dokumente/Uni/VU/P1/Cognitive Psych/Experiment","no","mono","no","18","no","white","no","Student","yes","768","C:/Users/lukas/OneDrive/Dokumente/Uni/VU/P1/Cognitive Psych/Experiment/logs_with/subject-0.csv","real","Melodramatic Milgram","4.0.5","photo","left","return","NA","return","return","NA","left","1196.6788999852724","3187.1976999973413","NA","36120.27900002431","13882.705399999395","NA","1196.6788999852724","NA","NA","2","real_20","1024","2","48000","-16","experiment","0","even","44300.06369997864","NA","26560.77969999751","59026.65329998126","NA","35695.158699993044","12612.733399990248","275565.6157999765","NA","NA","276071.00989998435","67755.03809997463","12673.307399993064","NA","NA","NA","NA","NA","NA","NA","NA","NA","49778.915699978825","NA","276071.46549999015","103875.91319999774","275557.9548999958","NA","67714.87469997373","NA","49774.86869998393","277268.76059998176","NA","44296.47119998117","NA","NA","New experiment","16","148669.70050000236","35","1024"
"47","NA","47","4187","4187","#3d3846","psycho","NA","1","undefined","undefined","1","right","0","0","0","0","0","0","0","35","NA","0","35","0","0","NA","NA","NA","0","NA","NA","NA","NA","NA","0","NA","35","0","35","0","0","0","0","35","0","0","0","NA","Sun Oct 15 20:35:05 2023","50","The main experiment item","yes","CogPsy_Assignment_With_Instruction.osexp","C:/Users/lukas/OneDrive/Dokumente/Uni/VU/P1/Cognitive Psych/Experiment","no","mono","no","18","no","white","no","Student","yes","768","C:/Users/lukas/OneDrive/Dokumente/Uni/VU/P1/Cognitive Psych/Experiment/logs_with/subject-0.csv","real","Melodramatic Milgram","4.0.5","photo","right","return","NA","return","return","NA","right","2087.6881000003777","3187.1976999973413","NA","36120.27900002431","13882.705399999395","NA","2087.6881000003777","NA","NA","2","real_50","1024","2","48000","-16","experiment","0","even","44300.06369997864","NA","26560.77969999751","59026.65329998126","NA","35695.158699993044","12612.733399990248","277455.8452999918","NA","NA","277961.40949998517","67755.03809997463","12673.307399993064","NA","NA","NA","NA","NA","NA","NA","NA","NA","49778.915699978825","NA","277961.61159998155","103875.91319999774","277449.60259998334","NA","67714.87469997373","NA","49774.86869998393","280050.22869998356","NA","44296.47119998117","NA","NA","New experiment","17","150757.38860000274","36","1024"
"48","NA","48","4118","4118","#3d3846","psycho","NA","1","undefined","undefined","1","left","0","0","0","0","0","0","0","36","NA","0","36","0","0","NA","NA","NA","0","NA","NA","NA","NA","NA","0","NA","36","0","36","0","0","0","0","36","0","0","0","NA","Sun Oct 15 20:35:05 2023","50","The main experiment item","yes","CogPsy_Assignment_With_Instruction.osexp","C:/Users/lukas/OneDrive/Dokumente/Uni/VU/P1/Cognitive Psych/Experiment","no","mono","no","18","no","white","no","Student","yes","768","C:/Users/lukas/OneDrive/Dokumente/Uni/VU/P1/Cognitive Psych/Experiment/logs_with/subject-0.csv","fake","Melodramatic Milgram","4.0.5","NoNumOnThread_BlurryWatermark","left","return","NA","return","return","NA","left","1617.223900015233","3187.1976999973413","NA","36120.27900002431","13882.705399999395","NA","1617.223900015233","NA","NA","2","fake_2_50","1024","2","48000","-16","experiment","0","even","44300.06369997864","NA","26560.77969999751","59026.65329998126","NA","35695.158699993044","12612.733399990248","280241.1083999905","NA","NA","280746.6593999998","67755.03809997463","12673.307399993064","NA","NA","NA","NA","NA","NA","NA","NA","NA","49778.915699978825","NA","280746.87889998313","103875.91319999774","280236.39809997985","NA","67714.87469997373","NA","49774.86869998393","282364.6214999899","NA","44296.47119998117","NA","NA","New experiment","18","152374.61250001797","37","1024"
"47","NA","47","4061","4061","#3d3846","psycho","NA","0","undefined","undefined","0","left","0","0","0","0","0","0","0","37","NA","0","37","0","0","NA","NA","NA","0","NA","NA","NA","NA","NA","0","NA","37","0","37","0","0","0","0","37","0","0","0","NA","Sun Oct 15 20:35:05 2023","50","The main experiment item","yes","CogPsy_Assignment_With_Instruction.osexp","C:/Users/lukas/OneDrive/Dokumente/Uni/VU/P1/Cognitive Psych/Experiment","no","mono","no","18","no","white","no","Student","yes","768","C:/Users/lukas/OneDrive/Dokumente/Uni/VU/P1/Cognitive Psych/Experiment/logs_with/subject-0.csv","fake","Melodramatic Milgram","4.0.5","bottom_left","right","return","NA","return","return","NA","right","1947.537400003057","3187.1976999973413","NA","36120.27900002431","13882.705399999395","NA","1947.537400003057","NA","NA","2","fake_1_50","1024","2","48000","-16","experiment","0","even","44300.06369997864","NA","26560.77969999751","59026.65329998126","NA","35695.158699993044","12612.733399990248","282503.99309999193","NA","NA","283008.4770999965","67755.03809997463","12673.307399993064","NA","NA","NA","NA","NA","NA","NA","NA","NA","49778.915699978825","NA","283008.66439999663","103875.91319999774","282498.1467999751","NA","67714.87469997373","NA","49774.86869998393","284957.3118999833","NA","44296.47119998117","NA","NA","New experiment","18","154322.14990002103","38","1024"
"46","NA","46","3976","3976","#3d3846","psycho","NA","0","undefined","undefined","0","left","0","0","0","0","0","0","0","38","NA","0","38","0","0","NA","NA","NA","0","NA","NA","NA","NA","NA","0","NA","38","0","38","0","0","0","0","38","0","0","0","NA","Sun Oct 15 20:35:05 2023","50","The main experiment item","yes","CogPsy_Assignment_With_Instruction.osexp","C:/Users/lukas/OneDrive/Dokumente/Uni/VU/P1/Cognitive Psych/Experiment","no","mono","no","18","no","white","no","Student","yes","768","C:/Users/lukas/OneDrive/Dokumente/Uni/VU/P1/Cognitive Psych/Experiment/logs_with/subject-0.csv","fake","Melodramatic Milgram","4.0.5","bottom_left","right","return","NA","return","return","NA","right","769.3558000028133","3187.1976999973413","NA","36120.27900002431","13882.705399999395","NA","769.3558000028133","NA","NA","2","fake_1_50","1024","2","48000","-16","experiment","0","even","44300.06369997864","NA","26560.77969999751","59026.65329998126","NA","35695.158699993044","12612.733399990248","285136.0237999761","NA","NA","285641.87629998196","67755.03809997463","12673.307399993064","NA","NA","NA","NA","NA","NA","NA","NA","NA","49778.915699978825","NA","285642.15139998123","103875.91319999774","285127.11499998113","NA","67714.87469997373","NA","49774.86869998393","286412.798299978","NA","44296.47119998117","NA","NA","New experiment","18","155091.50570002384","39","1024"
"47","NA","47","3901","3901","#3d3846","psycho","NA","1","undefined","undefined","1","left","0","0","0","0","0","0","0","39","NA","0","39","0","0","NA","NA","NA","0","NA","NA","NA","NA","NA","0","NA","39","0","39","0","0","0","0","39","0","0","0","NA","Sun Oct 15 20:35:05 2023","20","The main experiment item","yes","CogPsy_Assignment_With_Instruction.osexp","C:/Users/lukas/OneDrive/Dokumente/Uni/VU/P1/Cognitive Psych/Experiment","no","mono","no","18","no","white","no","Student","yes","768","C:/Users/lukas/OneDrive/Dokumente/Uni/VU/P1/Cognitive Psych/Experiment/logs_with/subject-0.csv","fake","Melodramatic Milgram","4.0.5","NoNumOnThread_BlurryWatermark","left","return","NA","return","return","NA","left","987.9826999967918","3187.1976999973413","NA","36120.27900002431","13882.705399999395","NA","987.9826999967918","NA","NA","2","fake_20","1024","2","48000","-16","experiment","0","even","44300.06369997864","NA","26560.77969999751","59026.65329998126","NA","35695.158699993044","12612.733399990248","286640.00959999976","NA","NA","287144.88869998604","67755.03809997463","12673.307399993064","NA","NA","NA","NA","NA","NA","NA","NA","NA","49778.915699978825","NA","287145.13289998285","103875.91319999774","286632.63949999237","NA","67714.87469997373","NA","49774.86869998393","288134.66789998347","NA","44296.47119998117","NA","NA","New experiment","19","156079.48840002064","40","1024"
"48","NA","48","3838","3838","#3d3846","psycho","NA","1","undefined","undefined","1","left","0","0","0","0","0","0","0","40","NA","0","40","0","0","NA","NA","NA","0","NA","NA","NA","NA","NA","0","NA","40","0","40","0","0","0","0","40","0","0","0","NA","Sun Oct 15 20:35:05 2023","20","The main experiment item","yes","CogPsy_Assignment_With_Instruction.osexp","C:/Users/lukas/OneDrive/Dokumente/Uni/VU/P1/Cognitive Psych/Experiment","no","mono","no","18","no","white","no","Student","yes","768","C:/Users/lukas/OneDrive/Dokumente/Uni/VU/P1/Cognitive Psych/Experiment/logs_with/subject-0.csv","fake","Melodramatic Milgram","4.0.5","silver_strip","left","return","NA","return","return","NA","left","1307.2666999942157","3187.1976999973413","NA","36120.27900002431","13882.705399999395","NA","1307.2666999942157","NA","NA","2","fake_2_20","1024","2","48000","-16","experiment","0","even","44300.06369997864","NA","26560.77969999751","59026.65329998126","NA","35695.158699993044","12612.733399990248","288276.641799981","NA","NA","288782.1573999827","67755.03809997463","12673.307399993064","NA","NA","NA","NA","NA","NA","NA","NA","NA","49778.915699978825","NA","288782.50569998636","103875.91319999774","288269.59839998744","NA","67714.87469997373","NA","49774.86869998393","290090.71369998856","NA","44296.47119998117","NA","NA","New experiment","20","157386.75510001485","41","1024"
"50","NA","50","3837","3837","#3d3846","psycho","NA","1","undefined","undefined","1","left","0","0","0","0","0","0","0","41","NA","0","41","0","0","NA","NA","NA","0","NA","NA","NA","NA","NA","0","NA","41","0","41","0","0","0","0","41","0","0","0","NA","Sun Oct 15 20:35:05 2023","50","The main experiment item","yes","CogPsy_Assignment_With_Instruction.osexp","C:/Users/lukas/OneDrive/Dokumente/Uni/VU/P1/Cognitive Psych/Experiment","no","mono","no","18","no","white","no","Student","yes","768","C:/Users/lukas/OneDrive/Dokumente/Uni/VU/P1/Cognitive Psych/Experiment/logs_with/subject-0.csv","fake","Melodramatic Milgram","4.0.5","BadInk","left","return","NA","return","return","NA","left","3796.8599000014365","3187.1976999973413","NA","36120.27900002431","13882.705399999395","NA","3796.8599000014365","NA","NA","2","fake_2_50","1024","2","48000","-16","experiment","0","even","44300.06369997864","NA","26560.77969999751","59026.65329998126","NA","35695.158699993044","12612.733399990248","290289.9027999956","NA","NA","290795.9109999938","67755.03809997463","12673.307399993064","NA","NA","NA","NA","NA","NA","NA","NA","NA","49778.915699978825","NA","290796.20969999814","103875.91319999774","290285.5782999832","NA","67714.87469997373","NA","49774.86869998393","294594.4166999834","NA","44296.47119998117","NA","NA","New experiment","21","161183.6150000163","42","1024"
"51","NA","51","3775","3775","#3d3846","psycho","NA","1","undefined","undefined","1","left","0","0","0","0","0","0","0","42","NA","0","42","0","0","NA","NA","NA","0","NA","NA","NA","NA","NA","0","NA","42","0","42","0","0","0","0","42","0","0","0","NA","Sun Oct 15 20:35:05 2023","20","The main experiment item","yes","CogPsy_Assignment_With_Instruction.osexp","C:/Users/lukas/OneDrive/Dokumente/Uni/VU/P1/Cognitive Psych/Experiment","no","mono","no","18","no","white","no","Student","yes","768","C:/Users/lukas/OneDrive/Dokumente/Uni/VU/P1/Cognitive Psych/Experiment/logs_with/subject-0.csv","fake","Melodramatic Milgram","4.0.5","NoNumOnThread_BlurryWatermark","left","return","NA","return","return","NA","left","1178.3274000044912","3187.1976999973413","NA","36120.27900002431","13882.705399999395","NA","1178.3274000044912","NA","NA","2","fake_20","1024","2","48000","-16","experiment","0","even","44300.06369997864","NA","26560.77969999751","59026.65329998126","NA","35695.158699993044","12612.733399990248","294785.0806999777","NA","NA","295290.2008999954","67755.03809997463","12673.307399993064","NA","NA","NA","NA","NA","NA","NA","NA","NA","49778.915699978825","NA","295290.54849999375","103875.91319999774","294779.35079997405","NA","67714.87469997373","NA","49774.86869998393","296469.660999981","NA","44296.47119998117","NA","NA","New experiment","22","162361.94240002078","43","1024"
"50","NA","50","3721","3721","#3d3846","psycho","NA","0","undefined","undefined","0","left","0","0","0","0","0","0","0","43","NA","0","43","0","0","NA","NA","NA","0","NA","NA","NA","NA","NA","0","NA","43","0","43","0","0","0","0","43","0","0","0","NA","Sun Oct 15 20:35:05 2023","20","The main experiment item","yes","CogPsy_Assignment_With_Instruction.osexp","C:/Users/lukas/OneDrive/Dokumente/Uni/VU/P1/Cognitive Psych/Experiment","no","mono","no","18","no","white","no","Student","yes","768","C:/Users/lukas/OneDrive/Dokumente/Uni/VU/P1/Cognitive Psych/Experiment/logs_with/subject-0.csv","fake","Melodramatic Milgram","4.0.5","BadInk","right","return","NA","return","return","NA","right","1381.7056000116281","3187.1976999973413","NA","36120.27900002431","13882.705399999395","NA","1381.7056000116281","NA","NA","2","fake_20","1024","2","48000","-16","experiment","0","even","44300.06369997864","NA","26560.77969999751","59026.65329998126","NA","35695.158699993044","12612.733399990248","296664.02479997487","NA","NA","297169.9270999816","67755.03809997463","12673.307399993064","NA","NA","NA","NA","NA","NA","NA","NA","NA","49778.915699978825","NA","297170.1650999894","103875.91319999774","296657.8077999875","NA","67714.87469997373","NA","49774.86869998393","298552.45769998874","NA","44296.47119998117","NA","NA","New experiment","22","163743.6480000324","44","1024"
"51","NA","51","3655","3655","#3d3846","psycho","NA","1","undefined","undefined","1","right","0","0","0","0","0","0","0","44","NA","0","44","0","0","NA","NA","NA","0","NA","NA","NA","NA","NA","0","NA","44","0","44","0","0","0","0","44","0","0","0","NA","Sun Oct 15 20:35:05 2023","20","The main experiment item","yes","CogPsy_Assignment_With_Instruction.osexp","C:/Users/lukas/OneDrive/Dokumente/Uni/VU/P1/Cognitive Psych/Experiment","no","mono","no","18","no","white","no","Student","yes","768","C:/Users/lukas/OneDrive/Dokumente/Uni/VU/P1/Cognitive Psych/Experiment/logs_with/subject-0.csv","real","Melodramatic Milgram","4.0.5","genuine","right","return","NA","return","return","NA","right","753.523999999743","3187.1976999973413","NA","36120.27900002431","13882.705399999395","NA","753.523999999743","NA","NA","2","real_20","1024","2","48000","-16","experiment","0","even","44300.06369997864","NA","26560.77969999751","59026.65329998126","NA","35695.158699993044","12612.733399990248","298735.3783999861","NA","NA","299240.6707999762","67755.03809997463","12673.307399993064","NA","NA","NA","NA","NA","NA","NA","NA","NA","49778.915699978825","NA","299241.0568999767","103875.91319999774","298726.084599999","NA","67714.87469997373","NA","49774.86869998393","299995.1383000007","NA","44296.47119998117","NA","NA","New experiment","23","164497.17200003215","45","1024"
"52","NA","52","3596","3596","#3d3846","psycho","NA","1","undefined","undefined","1","left","0","0","0","0","0","0","0","45","NA","0","45","0","0","NA","NA","NA","0","NA","NA","NA","NA","NA","0","NA","45","0","45","0","0","0","0","45","0","0","0","NA","Sun Oct 15 20:35:05 2023","50","The main experiment item","yes","CogPsy_Assignment_With_Instruction.osexp","C:/Users/lukas/OneDrive/Dokumente/Uni/VU/P1/Cognitive Psych/Experiment","no","mono","no","18","no","white","no","Student","yes","768","C:/Users/lukas/OneDrive/Dokumente/Uni/VU/P1/Cognitive Psych/Experiment/logs_with/subject-0.csv","fake","Melodramatic Milgram","4.0.5","NoNumOnThread_BlurryWatermark","left","return","NA","return","return","NA","left","926.7273000150453","3187.1976999973413","NA","36120.27900002431","13882.705399999395","NA","926.7273000150453","NA","NA","2","fake_2_50","1024","2","48000","-16","experiment","0","even","44300.06369997864","NA","26560.77969999751","59026.65329998126","NA","35695.158699993044","12612.733399990248","300137.931699981","NA","NA","300642.74199999636","67755.03809997463","12673.307399993064","NA","NA","NA","NA","NA","NA","NA","NA","NA","49778.915699978825","NA","300642.904599983","103875.91319999774","300132.8846999968","NA","67714.87469997373","NA","49774.86869998393","301570.5238999799","NA","44296.47119998117","NA","NA","New experiment","24","165423.8993000472","46","1024"
"51","NA","51","3534","3534","#3d3846","psycho","NA","0","undefined","undefined","0","left","0","0","0","0","0","0","0","46","NA","0","46","0","0","NA","NA","NA","0","NA","NA","NA","NA","NA","0","NA","46","0","46","0","0","0","0","46","0","0","0","NA","Sun Oct 15 20:35:05 2023","50","The main experiment item","yes","CogPsy_Assignment_With_Instruction.osexp","C:/Users/lukas/OneDrive/Dokumente/Uni/VU/P1/Cognitive Psych/Experiment","no","mono","no","18","no","white","no","Student","yes","768","C:/Users/lukas/OneDrive/Dokumente/Uni/VU/P1/Cognitive Psych/Experiment/logs_with/subject-0.csv","fake","Melodramatic Milgram","4.0.5","GreyDenomination","right","return","NA","return","return","NA","right","690.7914000039455","3187.1976999973413","NA","36120.27900002431","13882.705399999395","NA","690.7914000039455","NA","NA","2","fake_2_50","1024","2","48000","-16","experiment","0","even","44300.06369997864","NA","26560.77969999751","59026.65329998126","NA","35695.158699993044","12612.733399990248","301800.27709997375","NA","NA","302305.8206999849","67755.03809997463","12673.307399993064","NA","NA","NA","NA","NA","NA","NA","NA","NA","49778.915699978825","NA","302306.04929997935","103875.91319999774","301794.24209997524","NA","67714.87469997373","NA","49774.86869998393","302998.0178999831","NA","44296.47119998117","NA","NA","New experiment","24","166114.69070005114","47","1024"
"50","NA","50","3511","3511","#3d3846","psycho","NA","0","undefined","undefined","0","right","0","0","0","0","0","0","0","47","NA","0","47","0","0","NA","NA","NA","0","NA","NA","NA","NA","NA","0","NA","47","0","47","0","0","0","0","47","0","0","0","NA","Sun Oct 15 20:35:05 2023","50","The main experiment item","yes","CogPsy_Assignment_With_Instruction.osexp","C:/Users/lukas/OneDrive/Dokumente/Uni/VU/P1/Cognitive Psych/Experiment","no","mono","no","18","no","white","no","Student","yes","768","C:/Users/lukas/OneDrive/Dokumente/Uni/VU/P1/Cognitive Psych/Experiment/logs_with/subject-0.csv","real","Melodramatic Milgram","4.0.5","photo_2","left","return","NA","return","return","NA","left","2417.096599994693","3187.1976999973413","NA","36120.27900002431","13882.705399999395","NA","2417.096599994693","NA","NA","2","real_50","1024","2","48000","-16","experiment","0","even","44300.06369997864","NA","26560.77969999751","59026.65329998126","NA","35695.158699993044","12612.733399990248","303147.8110999742","NA","NA","303653.7116999971","67755.03809997463","12673.307399993064","NA","NA","NA","NA","NA","NA","NA","NA","NA","49778.915699978825","NA","303653.93010000116","103875.91319999774","303141.88589999685","NA","67714.87469997373","NA","49774.86869998393","306071.71259997995","NA","44296.47119998117","NA","NA","New experiment","24","168531.78730004583","48","1024"
"48","NA","48","3459","3459","#3d3846","psycho","NA","0","undefined","undefined","0","left","0","0","0","0","0","0","0","48","NA","0","48","0","0","NA","NA","NA","0","NA","NA","NA","NA","NA","0","NA","48","0","48","0","0","0","0","48","0","0","0","NA","Sun Oct 15 20:35:05 2023","50","The main experiment item","yes","CogPsy_Assignment_With_Instruction.osexp","C:/Users/lukas/OneDrive/Dokumente/Uni/VU/P1/Cognitive Psych/Experiment","no","mono","no","18","no","white","no","Student","yes","768","C:/Users/lukas/OneDrive/Dokumente/Uni/VU/P1/Cognitive Psych/Experiment/logs_with/subject-0.csv","fake","Melodramatic Milgram","4.0.5","PurpleDenomination3","right","return","NA","return","return","NA","right","987.1818000101484","3187.1976999973413","NA","36120.27900002431","13882.705399999395","NA","987.1818000101484","NA","NA","2","fake_2_50","1024","2","48000","-16","experiment","0","even","44300.06369997864","NA","26560.77969999751","59026.65329998126","NA","35695.158699993044","12612.733399990248","306267.52109997324","NA","NA","306774.210899981","67755.03809997463","12673.307399993064","NA","NA","NA","NA","NA","NA","NA","NA","NA","49778.915699978825","NA","306774.62719997857","103875.91319999774","306261.56289997743","NA","67714.87469997373","NA","49774.86869998393","307762.46919998084","NA","44296.47119998117","NA","NA","New experiment","24","169518.96910005598","49","1024"
"48","NA","48","3402","3402","#3d3846","psycho","NA","0","undefined","undefined","0","left","0","0","0","0","0","0","0","49","NA","0","49","0","0","NA","NA","NA","0","NA","NA","NA","NA","NA","0","NA","49","0","49","0","0","0","0","49","0","0","0","NA","Sun Oct 15 20:35:05 2023","50","The main experiment item","yes","CogPsy_Assignment_With_Instruction.osexp","C:/Users/lukas/OneDrive/Dokumente/Uni/VU/P1/Cognitive Psych/Experiment","no","mono","no","18","no","white","no","Student","yes","768","C:/Users/lukas/OneDrive/Dokumente/Uni/VU/P1/Cognitive Psych/Experiment/logs_with/subject-0.csv","fake","Melodramatic Milgram","4.0.5","PurpleDenomination3","right","return","NA","return","return","NA","right","595.1781000185292","3187.1976999973413","NA","36120.27900002431","13882.705399999395","NA","595.1781000185292","NA","NA","2","fake_2_50","1024","2","48000","-16","experiment","0","even","44300.06369997864","NA","26560.77969999751","59026.65329998126","NA","35695.158699993044","12612.733399990248","307954.89899997483","NA","NA","308460.5628999998","67755.03809997463","12673.307399993064","NA","NA","NA","NA","NA","NA","NA","NA","NA","49778.915699978825","NA","308460.84339998197","103875.91319999774","307949.9020999938","NA","67714.87469997373","NA","49774.86869998393","309057.371199975","NA","44296.47119998117","NA","NA","New experiment","24","170114.1472000745","50","1024"
"47","NA","47","3355","3355","#3d3846","psycho","NA","0","undefined","undefined","0","left","0","0","0","0","0","0","0","50","NA","0","50","0","0","NA","NA","NA","0","NA","NA","NA","NA","NA","0","NA","50","0","50","0","0","0","0","50","0","0","0","NA","Sun Oct 15 20:35:05 2023","20","The main experiment item","yes","CogPsy_Assignment_With_Instruction.osexp","C:/Users/lukas/OneDrive/Dokumente/Uni/VU/P1/Cognitive Psych/Experiment","no","mono","no","18","no","white","no","Student","yes","768","C:/Users/lukas/OneDrive/Dokumente/Uni/VU/P1/Cognitive Psych/Experiment/logs_with/subject-0.csv","fake","Melodramatic Milgram","4.0.5","DullHologram2","right","return","NA","return","return","NA","right","996.6584999929182","3187.1976999973413","NA","36120.27900002431","13882.705399999395","NA","996.6584999929182","NA","NA","2","fake_20","1024","2","48000","-16","experiment","0","even","44300.06369997864","NA","26560.77969999751","59026.65329998126","NA","35695.158699993044","12612.733399990248","309213.64929998526","NA","NA","309718.8682999986","67755.03809997463","12673.307399993064","NA","NA","NA","NA","NA","NA","NA","NA","NA","49778.915699978825","NA","309719.1036999866","103875.91319999774","309207.047999982","NA","67714.87469997373","NA","49774.86869998393","310717.0539999788","NA","44296.47119998117","NA","NA","New experiment","24","171110.80570006743","51","1024"
"48","NA","48","3300","3300","#3d3846","psycho","NA","1","undefined","undefined","1","right","0","0","0","0","0","0","0","51","NA","0","51","0","0","NA","NA","NA","0","NA","NA","NA","NA","NA","0","NA","51","0","51","0","0","0","0","51","0","0","0","NA","Sun Oct 15 20:35:05 2023","50","The main experiment item","yes","CogPsy_Assignment_With_Instruction.osexp","C:/Users/lukas/OneDrive/Dokumente/Uni/VU/P1/Cognitive Psych/Experiment","no","mono","no","18","no","white","no","Student","yes","768","C:/Users/lukas/OneDrive/Dokumente/Uni/VU/P1/Cognitive Psych/Experiment/logs_with/subject-0.csv","real","Melodramatic Milgram","4.0.5","genuine","right","return","NA","return","return","NA","right","511.9491000077687","3187.1976999973413","NA","36120.27900002431","13882.705399999395","NA","511.9491000077687","NA","NA","2","real_20","1024","2","48000","-16","experiment","0","even","44300.06369997864","NA","26560.77969999751","59026.65329998126","NA","35695.158699993044","12612.733399990248","310910.2066999767","NA","NA","311417.189699976","67755.03809997463","12673.307399993064","NA","NA","NA","NA","NA","NA","NA","NA","NA","49778.915699978825","NA","311417.4315999844","103875.91319999774","310900.7704999822","NA","67714.87469997373","NA","49774.86869998393","311930.5567999836","NA","44296.47119998117","NA","NA","New experiment","25","171622.7548000752","52","1024"
"49","NA","49","3257","3257","#3d3846","psycho","NA","1","undefined","undefined","1","right","0","0","0","0","0","0","0","52","NA","0","52","0","0","NA","NA","NA","0","NA","NA","NA","NA","NA","0","NA","52","0","52","0","0","0","0","52","0","0","0","NA","Sun Oct 15 20:35:05 2023","50","The main experiment item","yes","CogPsy_Assignment_With_Instruction.osexp","C:/Users/lukas/OneDrive/Dokumente/Uni/VU/P1/Cognitive Psych/Experiment","no","mono","no","18","no","white","no","Student","yes","768","C:/Users/lukas/OneDrive/Dokumente/Uni/VU/P1/Cognitive Psych/Experiment/logs_with/subject-0.csv","real","Melodramatic Milgram","4.0.5","photo","right","return","NA","return","return","NA","right","1033.4223999816459","3187.1976999973413","NA","36120.27900002431","13882.705399999395","NA","1033.4223999816459","NA","NA","2","real_50","1024","2","48000","-16","experiment","0","even","44300.06369997864","NA","26560.77969999751","59026.65329998126","NA","35695.158699993044","12612.733399990248","312108.58569998527","NA","NA","312614.3559999764","67755.03809997463","12673.307399993064","NA","NA","NA","NA","NA","NA","NA","NA","NA","49778.915699978825","NA","312614.5844999992","103875.91319999774","312103.1080999819","NA","67714.87469997373","NA","49774.86869998393","313648.7034999882","NA","44296.47119998117","NA","NA","New experiment","26","172656.17720005685","53","1024"
"48","NA","48","3226","3226","#3d3846","psycho","NA","0","undefined","undefined","0","left","0","0","0","0","0","0","0","53","NA","0","53","0","0","NA","NA","NA","0","NA","NA","NA","NA","NA","0","NA","53","0","53","0","0","0","0","53","0","0","0","NA","Sun Oct 15 20:35:05 2023","20","The main experiment item","yes","CogPsy_Assignment_With_Instruction.osexp","C:/Users/lukas/OneDrive/Dokumente/Uni/VU/P1/Cognitive Psych/Experiment","no","mono","no","18","no","white","no","Student","yes","768","C:/Users/lukas/OneDrive/Dokumente/Uni/VU/P1/Cognitive Psych/Experiment/logs_with/subject-0.csv","fake","Melodramatic Milgram","4.0.5","PurpleDenomination","right","return","NA","return","return","NA","right","1563.5971000010613","3187.1976999973413","NA","36120.27900002431","13882.705399999395","NA","1563.5971000010613","NA","NA","2","fake_20","1024","2","48000","-16","experiment","0","even","44300.06369997864","NA","26560.77969999751","59026.65329998126","NA","35695.158699993044","12612.733399990248","313853.99649999454","NA","NA","314358.71489997953","67755.03809997463","12673.307399993064","NA","NA","NA","NA","NA","NA","NA","NA","NA","49778.915699978825","NA","314359.2067999998","103875.91319999774","313849.0098999755","NA","67714.87469997373","NA","49774.86869998393","315923.81319997367","NA","44296.47119998117","NA","NA","New experiment","26","174219.7743000579","54","1024"
"48","NA","48","3226","3226","#3d3846","psycho","NA","0","undefined","undefined","0","left","0","0","0","0","0","0","0","53","NA","0","53","0","0","NA","NA","NA","0","NA","NA","NA","NA","NA","0","NA","53","0","53","0","0","0","0","53","0","0","0","NA","Sun Oct 15 20:35:05 2023","20","The main experiment item","yes","CogPsy_Assignment_With_Instruction.osexp","C:/Users/lukas/OneDrive/Dokumente/Uni/VU/P1/Cognitive Psych/Experiment","no","mono","no","18","no","white","no","","yes","768","C:/Users/lukas/OneDrive/Dokumente/Uni/VU/P1/Cognitive Psych/Experiment/logs_with/subject-0.csv","fake","Melodramatic Milgram","4.0.5","PurpleDenomination","","return","NA","return","return","NA","right","1563.5971000010613","3187.1976999973413","NA","36120.27900002431","13882.705399999395","NA","1563.5971000010613","NA","NA","2","fake_20","1024","2","48000","-16","experiment","0","even","44300.06369997864","NA","26560.77969999751","59026.65329998126","NA","35695.158699993044","12612.733399990248","313853.99649999454","NA","NA","314358.71489997953","67755.03809997463","12673.307399993064","NA","NA","NA","339769.4023999793","NA","NA","NA","NA","NA","49778.915699978825","NA","314359.2067999998","103875.91319999774","313849.0098999755","NA","67714.87469997373","316002.7372999757","49774.86869998393","315923.81319997367","NA","44296.47119998117","NA","NA","New experiment","26","174219.7743000579","54","1024"
"48","NA","48","3226","3226","#3d3846","psycho","NA","0","undefined","undefined","0","left","0","0","0","0","0","0","0","53","NA","0","53","0","0","NA","NA","NA","0","NA","NA","NA","NA","NA","0","NA","53","0","53","0","0","0","0","53","0","0","0","NA","Sun Oct 15 20:35:05 2023","20","The main experiment item","yes","CogPsy_Assignment_With_Instruction.osexp","C:/Users/lukas/OneDrive/Dokumente/Uni/VU/P1/Cognitive Psych/Experiment","no","mono","no","18","no","white","no","Ok","yes","768","C:/Users/lukas/OneDrive/Dokumente/Uni/VU/P1/Cognitive Psych/Experiment/logs_with/subject-0.csv","fake","Melodramatic Milgram","4.0.5","PurpleDenomination","Silver strip (security thread);Text values;Watermark","return","NA","return","return","NA","right","1563.5971000010613","3187.1976999973413","NA","36120.27900002431","13882.705399999395","NA","1563.5971000010613","NA","NA","2","fake_20","1024","2","48000","-16","experiment","0","even","44300.06369997864","NA","26560.77969999751","59026.65329998126","NA","35695.158699993044","12612.733399990248","313853.99649999454","NA","NA","314358.71489997953","67755.03809997463","12673.307399993064","NA","NA","NA","339769.4023999793","NA","NA","NA","NA","NA","49778.915699978825","NA","314359.2067999998","103875.91319999774","313849.0098999755","NA","67714.87469997373","316002.7372999757","49774.86869998393","315923.81319997367","NA","44296.47119998117","366423.888099991","NA","New experiment","26","174219.7743000579","54","1024"
