"acc","accept_status","accuracy","average_response_time","avg_rt","background","canvas_backend","checkbox_status","correct","correct_consent_sketchpad","correct_instruction_sketchpad","correct_new_keyboard_response","correct_response","count_age_form","count_checkbox_security_form","count_consent_sketchpad","count_country_logger","count_eurozone_form","count_eurozone_logger","count_experiment","count_fixation_dots","count_getting_started","count_goodbye_sketchpad","count_images_sketchpad","count_information_display_sketchpad","count_instruction_sketchpad","count_new_1_form_base","count_new_1_form_text_input","count_new_1_sketchpad","count_new_2_logger","count_new_4_form_multiple_choice","count_new_form_base","count_new_form_consent","count_new_form_multiple_choice","count_new_form_text_display","count_new_form_text_input","count_new_inline_script","count_new_keyboard_response","count_new_loop","count_new_sequence","count_occupation_form","count_occupation_logger","count_open_security_input_form","count_personal_data_logger","count_response_logger","count_schooling_level_form","count_schooling_logger","count_security_feature_logger","count_welcome","datetime","denomination","description","disable_garbage_collection","experiment_file","experiment_path","font_bold","font_family","font_italic","font_size","font_underline","foreground","form_clicks","form_response","fullscreen","height","logfile","note_type","opensesame_codename","opensesame_version","reason","response","response_consent_sketchpad","response_goodbye_sketchpad","response_information_display_sketchpad","response_instruction_sketchpad","response_new_1_sketchpad","response_new_keyboard_response","response_time","response_time_consent_sketchpad","response_time_goodbye_sketchpad","response_time_information_display_sketchpad","response_time_instruction_sketchpad","response_time_new_1_sketchpad","response_time_new_keyboard_response","response_time_welcome","response_welcome","round_decimals","show","sound_buf_size","sound_channels","sound_freq","sound_sample_size","start","subject_nr","subject_parity","time_age_form","time_checkbox_security_form","time_consent_sketchpad","time_country_logger","time_eurozone_form","time_eurozone_logger","time_experiment","time_fixation_dots","time_getting_started","time_goodbye_sketchpad","time_images_sketchpad","time_information_display_sketchpad","time_instruction_sketchpad","time_new_1_form_base","time_new_1_form_text_input","time_new_1_sketchpad","time_new_2_logger","time_new_4_form_multiple_choice","time_new_form_base","time_new_form_consent","time_new_form_multiple_choice","time_new_form_text_display","time_new_form_text_input","time_new_inline_script","time_new_keyboard_response","time_new_loop","time_new_sequence","time_occupation_form","time_occupation_logger","time_open_security_input_form","time_personal_data_logger","time_response_logger","time_schooling_level_form","time_schooling_logger","time_security_feature_logger","time_welcome","title","total_correct","total_response_time","total_responses","width"
"undefined","NA","undefined","undefined","undefined","#3d3846","psycho","NA","undefined","undefined","undefined","NA","NA","0","0","0","0","0","0","0","NA","NA","0","NA","0","0","NA","NA","NA","0","NA","NA","NA","NA","NA","0","NA","NA","0","NA","0","0","0","0","NA","0","0","0","NA","Sat Oct 28 18:10:58 2023","NA","The main experiment item","yes","CogPsy_Assignment_With_Instruction.osexp","/home/matt/Documents/VU/MS/Cognitive_Psychology/project","no","mono","no","18","no","white","no","Yes","yes","768","/home/matt/Documents/VU/MS/Cognitive_Psychology/project/code/responses/with_ins/subject-666.csv","NA","Melodramatic Milgram","4.0.6","NA","Yes","right","NA","NA","right","NA","NA","2111.8569374084473","2111.8569374084473","NA","NA","1999.8559951782227","NA","NA","NA","NA","2","NA","1024","2","48000","-16","experiment","666","even","NA","NA","8025.037050247192","NA","NA","12606.894969940186","5896.587133407593","NA","NA","NA","NA","NA","5999.855995178223","NA","NA","NA","NA","NA","NA","NA","NA","NA","NA","NA","NA","NA","NA","NA","NA","NA","NA","NA","NA","NA","NA","NA","New experiment","0","0","0","1024"
"undefined","NA","undefined","undefined","undefined","#3d3846","psycho","NA","undefined","undefined","undefined","NA","NA","0","0","0","0","0","0","0","NA","NA","0","NA","0","0","NA","NA","NA","0","NA","NA","NA","NA","NA","0","NA","NA","0","NA","0","0","0","0","NA","0","0","0","NA","Sat Oct 28 18:10:58 2023","NA","The main experiment item","yes","CogPsy_Assignment_With_Instruction.osexp","/home/matt/Documents/VU/MS/Cognitive_Psychology/project","no","mono","no","18","no","white","no","Bachelors","yes","768","/home/matt/Documents/VU/MS/Cognitive_Psychology/project/code/responses/with_ins/subject-666.csv","NA","Melodramatic Milgram","4.0.6","NA","Bachelors","right","NA","NA","right","NA","NA","2111.8569374084473","2111.8569374084473","NA","NA","1999.8559951782227","NA","NA","NA","NA","2","NA","1024","2","48000","-16","experiment","666","even","NA","NA","8025.037050247192","NA","NA","12606.894969940186","5896.587133407593","NA","NA","NA","NA","NA","5999.855995178223","NA","NA","NA","NA","NA","NA","NA","NA","NA","NA","NA","NA","NA","NA","NA","NA","NA","NA","NA","NA","15792.59204864502","NA","NA","New experiment","0","0","0","1024"
"undefined","NA","undefined","undefined","undefined","#3d3846","psycho","NA","undefined","undefined","undefined","NA","NA","0","0","0","0","0","0","0","NA","NA","0","NA","0","0","NA","NA","NA","0","NA","NA","NA","NA","NA","0","NA","NA","0","NA","0","0","0","0","NA","0","0","0","NA","Sat Oct 28 18:10:58 2023","NA","The main experiment item","yes","CogPsy_Assignment_With_Instruction.osexp","/home/matt/Documents/VU/MS/Cognitive_Psychology/project","no","mono","no","18","no","white","no","24","yes","768","/home/matt/Documents/VU/MS/Cognitive_Psychology/project/code/responses/with_ins/subject-666.csv","NA","Melodramatic Milgram","4.0.6","NA","24","right","NA","NA","right","NA","NA","2111.8569374084473","2111.8569374084473","NA","NA","1999.8559951782227","NA","NA","NA","NA","2","NA","1024","2","48000","-16","experiment","666","even","15801.614046096802","NA","8025.037050247192","NA","NA","12606.894969940186","5896.587133407593","NA","NA","NA","NA","NA","5999.855995178223","NA","NA","NA","NA","NA","NA","NA","NA","NA","NA","NA","NA","NA","NA","NA","NA","NA","19156.79097175598","NA","NA","15792.59204864502","NA","NA","New experiment","0","0","0","1024"
"undefined","NA","undefined","undefined","undefined","#3d3846","psycho","NA","undefined","undefined","undefined","NA","NA","0","0","0","0","0","0","0","NA","NA","0","NA","0","0","NA","NA","NA","0","NA","NA","NA","NA","NA","0","NA","NA","0","NA","0","0","0","0","NA","0","0","0","NA","Sat Oct 28 18:10:58 2023","NA","The main experiment item","yes","CogPsy_Assignment_With_Instruction.osexp","/home/matt/Documents/VU/MS/Cognitive_Psychology/project","no","mono","no","18","no","white","no","Polish","yes","768","/home/matt/Documents/VU/MS/Cognitive_Psychology/project/code/responses/with_ins/subject-666.csv","NA","Melodramatic Milgram","4.0.6","NA","Polish","right","NA","NA","right","NA","NA","2111.8569374084473","2111.8569374084473","NA","NA","1999.8559951782227","NA","NA","NA","NA","2","NA","1024","2","48000","-16","experiment","666","even","15801.614046096802","NA","8025.037050247192","22808.616161346436","NA","12606.894969940186","5896.587133407593","NA","NA","NA","NA","NA","5999.855995178223","NA","NA","NA","NA","NA","NA","NA","NA","NA","19159.934997558594","NA","NA","NA","NA","NA","NA","NA","19156.79097175598","NA","NA","15792.59204864502","NA","NA","New experiment","0","0","0","1024"
"undefined","NA","undefined","undefined","undefined","#3d3846","psycho","NA","undefined","undefined","undefined","NA","NA","0","0","0","0","0","0","0","NA","NA","0","NA","0","0","NA","NA","NA","0","NA","NA","NA","NA","NA","0","NA","NA","0","NA","0","0","0","0","NA","0","0","0","NA","Sat Oct 28 18:10:58 2023","NA","The main experiment item","yes","CogPsy_Assignment_With_Instruction.osexp","/home/matt/Documents/VU/MS/Cognitive_Psychology/project","no","mono","no","18","no","white","no","Student","yes","768","/home/matt/Documents/VU/MS/Cognitive_Psychology/project/code/responses/with_ins/subject-666.csv","NA","Melodramatic Milgram","4.0.6","NA","Student","right","NA","NA","right","NA","NA","2111.8569374084473","2111.8569374084473","NA","NA","1999.8559951782227","NA","NA","NA","NA","2","NA","1024","2","48000","-16","experiment","666","even","15801.614046096802","NA","8025.037050247192","22808.616161346436","NA","12606.894969940186","5896.587133407593","NA","NA","NA","NA","NA","5999.855995178223","NA","NA","NA","NA","NA","NA","NA","NA","NA","19159.934997558594","NA","NA","NA","NA","NA","26325.963020324707","NA","19156.79097175598","NA","NA","15792.59204864502","NA","NA","New experiment","0","0","0","1024"
"100","NA","100","3888","3888","#3d3846","psycho","NA","1","undefined","undefined","1","right","0","0","0","0","0","0","0","0","NA","0","0","0","0","NA","NA","NA","0","NA","NA","NA","NA","NA","0","NA","0","0","0","0","0","0","0","0","0","0","0","NA","Sat Oct 28 18:10:58 2023","20","The main experiment item","yes","CogPsy_Assignment_With_Instruction.osexp","/home/matt/Documents/VU/MS/Cognitive_Psychology/project","no","mono","no","18","no","white","no","Student","yes","768","/home/matt/Documents/VU/MS/Cognitive_Psychology/project/code/responses/with_ins/subject-666.csv","real","Melodramatic Milgram","4.0.6","genuine","right","right","NA","right","right","NA","right","3888.680934906006","2111.8569374084473","NA","6627.05397605896","1999.8559951782227","NA","3888.680934906006","NA","NA","2","real_20","1024","2","48000","-16","experiment","666","even","15801.614046096802","NA","8025.037050247192","22808.616161346436","NA","12606.894969940186","5896.587133407593","33058.20417404175","NA","NA","33574.93615150452","26357.88917541504","5999.855995178223","NA","NA","NA","NA","NA","NA","NA","NA","NA","19159.934997558594","NA","33576.266050338745","32985.215187072754","33043.33806037903","NA","26325.963020324707","NA","19156.79097175598","37465.20805358887","NA","15792.59204864502","NA","NA","New experiment","1","3888.680934906006","1","1024"
"100","NA","100","2597","2597","#3d3846","psycho","NA","1","undefined","undefined","1","left","0","0","0","0","0","0","0","1","NA","0","1","0","0","NA","NA","NA","0","NA","NA","NA","NA","NA","0","NA","1","0","1","0","0","0","0","1","0","0","0","NA","Sat Oct 28 18:10:58 2023","20","The main experiment item","yes","CogPsy_Assignment_With_Instruction.osexp","/home/matt/Documents/VU/MS/Cognitive_Psychology/project","no","mono","no","18","no","white","no","Student","yes","768","/home/matt/Documents/VU/MS/Cognitive_Psychology/project/code/responses/with_ins/subject-666.csv","fake","Melodramatic Milgram","4.0.6","DullHologram2","left","right","NA","right","right","NA","left","1306.3011169433594","2111.8569374084473","NA","6627.05397605896","1999.8559951782227","NA","1306.3011169433594","NA","NA","2","fake_20","1024","2","48000","-16","experiment","666","even","15801.614046096802","NA","8025.037050247192","22808.616161346436","NA","12606.894969940186","5896.587133407593","37646.20804786682","NA","NA","38158.42413902283","26357.88917541504","5999.855995178223","NA","NA","NA","NA","NA","NA","NA","NA","NA","19159.934997558594","NA","38158.65397453308","32985.215187072754","37637.93897628784","NA","26325.963020324707","NA","19156.79097175598","39465.21496772766","NA","15792.59204864502","NA","NA","New experiment","2","5194.982051849365","2","1024"
"66","NA","66","3079","3079","#3d3846","psycho","NA","0","undefined","undefined","0","left","0","0","0","0","0","0","0","2","NA","0","2","0","0","NA","NA","NA","0","NA","NA","NA","NA","NA","0","NA","2","0","2","0","0","0","0","2","0","0","0","NA","Sat Oct 28 18:10:58 2023","50","The main experiment item","yes","CogPsy_Assignment_With_Instruction.osexp","/home/matt/Documents/VU/MS/Cognitive_Psychology/project","no","mono","no","18","no","white","no","Student","yes","768","/home/matt/Documents/VU/MS/Cognitive_Psychology/project/code/responses/with_ins/subject-666.csv","fake","Melodramatic Milgram","4.0.6","PurpleDenomination2","right","right","NA","right","right","NA","right","4042.597770690918","2111.8569374084473","NA","6627.05397605896","1999.8559951782227","NA","4042.597770690918","NA","NA","2","fake_2_50","1024","2","48000","-16","experiment","666","even","15801.614046096802","NA","8025.037050247192","22808.616161346436","NA","12606.894969940186","5896.587133407593","39625.36811828613","NA","NA","40141.97516441345","26357.88917541504","5999.855995178223","NA","NA","NA","NA","NA","NA","NA","NA","NA","19159.934997558594","NA","40142.34519004822","32985.215187072754","39613.386154174805","NA","26325.963020324707","NA","19156.79097175598","44185.21213531494","NA","15792.59204864502","NA","NA","New experiment","2","9237.579822540283","3","1024"
"50","NA","50","3032","3032","#3d3846","psycho","NA","0","undefined","undefined","0","left","0","0","0","0","0","0","0","3","NA","0","3","0","0","NA","NA","NA","0","NA","NA","NA","NA","NA","0","NA","3","0","3","0","0","0","0","3","0","0","0","NA","Sat Oct 28 18:10:58 2023","20","The main experiment item","yes","CogPsy_Assignment_With_Instruction.osexp","/home/matt/Documents/VU/MS/Cognitive_Psychology/project","no","mono","no","18","no","white","no","Student","yes","768","/home/matt/Documents/VU/MS/Cognitive_Psychology/project/code/responses/with_ins/subject-666.csv","fake","Melodramatic Milgram","4.0.6","PurpleDenomination","right","right","NA","right","right","NA","right","2892.8709030151367","2111.8569374084473","NA","6627.05397605896","1999.8559951782227","NA","2892.8709030151367","NA","NA","2","fake_20","1024","2","48000","-16","experiment","666","even","15801.614046096802","NA","8025.037050247192","22808.616161346436","NA","12606.894969940186","5896.587133407593","44342.12517738342","NA","NA","44859.03096199036","26357.88917541504","5999.855995178223","NA","NA","NA","NA","NA","NA","NA","NA","NA","19159.934997558594","NA","44860.093116760254","32985.215187072754","44323.55713844299","NA","26325.963020324707","NA","19156.79097175598","47753.228187561035","NA","15792.59204864502","NA","NA","New experiment","2","12130.45072555542","4","1024"
"60","NA","60","2729","2729","#3d3846","psycho","NA","1","undefined","undefined","1","right","0","0","0","0","0","0","0","4","NA","0","4","0","0","NA","NA","NA","0","NA","NA","NA","NA","NA","0","NA","4","0","4","0","0","0","0","4","0","0","0","NA","Sat Oct 28 18:10:58 2023","50","The main experiment item","yes","CogPsy_Assignment_With_Instruction.osexp","/home/matt/Documents/VU/MS/Cognitive_Psychology/project","no","mono","no","18","no","white","no","Student","yes","768","/home/matt/Documents/VU/MS/Cognitive_Psychology/project/code/responses/with_ins/subject-666.csv","real","Melodramatic Milgram","4.0.6","photo","right","right","NA","right","right","NA","right","1517.0748233795166","2111.8569374084473","NA","6627.05397605896","1999.8559951782227","NA","1517.0748233795166","NA","NA","2","real_50","1024","2","48000","-16","experiment","666","even","15801.614046096802","NA","8025.037050247192","22808.616161346436","NA","12606.894969940186","5896.587133407593","47908.96797180176","NA","NA","48425.91404914856","26357.88917541504","5999.855995178223","NA","NA","NA","NA","NA","NA","NA","NA","NA","19159.934997558594","NA","48427.84118652344","32985.215187072754","47900.315046310425","NA","26325.963020324707","NA","19156.79097175598","49945.192098617554","NA","15792.59204864502","NA","NA","New experiment","3","13647.525548934937","5","1024"
"66","NA","66","2614","2614","#3d3846","psycho","NA","1","undefined","undefined","1","right","0","0","0","0","0","0","0","5","NA","0","5","0","0","NA","NA","NA","0","NA","NA","NA","NA","NA","0","NA","5","0","5","0","0","0","0","5","0","0","0","NA","Sat Oct 28 18:10:58 2023","50","The main experiment item","yes","CogPsy_Assignment_With_Instruction.osexp","/home/matt/Documents/VU/MS/Cognitive_Psychology/project","no","mono","no","18","no","white","no","Student","yes","768","/home/matt/Documents/VU/MS/Cognitive_Psychology/project/code/responses/with_ins/subject-666.csv","real","Melodramatic Milgram","4.0.6","genuine","right","right","NA","right","right","NA","right","2040.1110649108887","2111.8569374084473","NA","6627.05397605896","1999.8559951782227","NA","2040.1110649108887","NA","NA","2","real_50","1024","2","48000","-16","experiment","666","even","15801.614046096802","NA","8025.037050247192","22808.616161346436","NA","12606.894969940186","5896.587133407593","50078.54914665222","NA","NA","50592.68808364868","26357.88917541504","5999.855995178223","NA","NA","NA","NA","NA","NA","NA","NA","NA","19159.934997558594","NA","50592.8590297699","32985.215187072754","50070.24908065796","NA","26325.963020324707","NA","19156.79097175598","52633.2311630249","NA","15792.59204864502","NA","NA","New experiment","4","15687.636613845825","6","1024"
"57","NA","57","2546","2546","#3d3846","psycho","NA","0","undefined","undefined","0","left","0","0","0","0","0","0","0","6","NA","0","6","0","0","NA","NA","NA","0","NA","NA","NA","NA","NA","0","NA","6","0","6","0","0","0","0","6","0","0","0","NA","Sat Oct 28 18:10:58 2023","50","The main experiment item","yes","CogPsy_Assignment_With_Instruction.osexp","/home/matt/Documents/VU/MS/Cognitive_Psychology/project","no","mono","no","18","no","white","no","Student","yes","768","/home/matt/Documents/VU/MS/Cognitive_Psychology/project/code/responses/with_ins/subject-666.csv","fake","Melodramatic Milgram","4.0.6","NoNumOnThread_BlurryWatermark","right","right","NA","right","right","NA","right","2137.4030113220215","2111.8569374084473","NA","6627.05397605896","1999.8559951782227","NA","2137.4030113220215","NA","NA","2","fake_2_50","1024","2","48000","-16","experiment","666","even","15801.614046096802","NA","8025.037050247192","22808.616161346436","NA","12606.894969940186","5896.587133407593","52792.983055114746","NA","NA","53309.53001976013","26357.88917541504","5999.855995178223","NA","NA","NA","NA","NA","NA","NA","NA","NA","19159.934997558594","NA","53311.52105331421","32985.215187072754","52779.11901473999","NA","26325.963020324707","NA","19156.79097175598","55449.19395446777","NA","15792.59204864502","NA","NA","New experiment","4","17825.039625167847","7","1024"
"50","NA","50","2439","2439","#3d3846","psycho","NA","0","undefined","undefined","0","left","0","0","0","0","0","0","0","7","NA","0","7","0","0","NA","NA","NA","0","NA","NA","NA","NA","NA","0","NA","7","0","7","0","0","0","0","7","0","0","0","NA","Sat Oct 28 18:10:58 2023","50","The main experiment item","yes","CogPsy_Assignment_With_Instruction.osexp","/home/matt/Documents/VU/MS/Cognitive_Psychology/project","no","mono","no","18","no","white","no","Student","yes","768","/home/matt/Documents/VU/MS/Cognitive_Psychology/project/code/responses/with_ins/subject-666.csv","fake","Melodramatic Milgram","4.0.6","BadInk","right","right","NA","right","right","NA","right","1689.8529529571533","2111.8569374084473","NA","6627.05397605896","1999.8559951782227","NA","1689.8529529571533","NA","NA","2","fake_2_50","1024","2","48000","-16","experiment","666","even","15801.614046096802","NA","8025.037050247192","22808.616161346436","NA","12606.894969940186","5896.587133407593","55609.8051071167","NA","NA","56126.25598907471","26357.88917541504","5999.855995178223","NA","NA","NA","NA","NA","NA","NA","NA","NA","19159.934997558594","NA","56127.07805633545","32985.215187072754","55593.3301448822","NA","26325.963020324707","NA","19156.79097175598","57817.20018386841","NA","15792.59204864502","NA","NA","New experiment","4","19514.892578125","8","1024"
"44","NA","44","2759","2759","#3d3846","psycho","NA","0","undefined","undefined","0","left","0","0","0","0","0","0","0","8","NA","0","8","0","0","NA","NA","NA","0","NA","NA","NA","NA","NA","0","NA","8","0","8","0","0","0","0","8","0","0","0","NA","Sat Oct 28 18:10:58 2023","20","The main experiment item","yes","CogPsy_Assignment_With_Instruction.osexp","/home/matt/Documents/VU/MS/Cognitive_Psychology/project","no","mono","no","18","no","white","no","Student","yes","768","/home/matt/Documents/VU/MS/Cognitive_Psychology/project/code/responses/with_ins/subject-666.csv","fake","Melodramatic Milgram","4.0.6","BadInk2","right","right","NA","right","right","NA","right","5321.700096130371","2111.8569374084473","NA","6627.05397605896","1999.8559951782227","NA","5321.700096130371","NA","NA","2","fake_20","1024","2","48000","-16","experiment","666","even","15801.614046096802","NA","8025.037050247192","22808.616161346436","NA","12606.894969940186","5896.587133407593","57993.303060531616","NA","NA","58510.01000404358","26357.88917541504","5999.855995178223","NA","NA","NA","NA","NA","NA","NA","NA","NA","19159.934997558594","NA","58511.22498512268","32985.215187072754","57982.33103752136","NA","26325.963020324707","NA","19156.79097175598","63833.20498466492","NA","15792.59204864502","NA","NA","New experiment","4","24836.59267425537","9","1024"
"50","NA","50","2660","2660","#3d3846","psycho","NA","1","undefined","undefined","1","right","0","0","0","0","0","0","0","9","NA","0","9","0","0","NA","NA","NA","0","NA","NA","NA","NA","NA","0","NA","9","0","9","0","0","0","0","9","0","0","0","NA","Sat Oct 28 18:10:58 2023","50","The main experiment item","yes","CogPsy_Assignment_With_Instruction.osexp","/home/matt/Documents/VU/MS/Cognitive_Psychology/project","no","mono","no","18","no","white","no","Student","yes","768","/home/matt/Documents/VU/MS/Cognitive_Psychology/project/code/responses/with_ins/subject-666.csv","real","Melodramatic Milgram","4.0.6","photo_2","right","right","NA","right","right","NA","right","1771.2130546569824","2111.8569374084473","NA","6627.05397605896","1999.8559951782227","NA","1771.2130546569824","NA","NA","2","real_50","1024","2","48000","-16","experiment","666","even","15801.614046096802","NA","8025.037050247192","22808.616161346436","NA","12606.894969940186","5896.587133407593","63977.87404060364","NA","NA","64493.41797828674","26357.88917541504","5999.855995178223","NA","NA","NA","NA","NA","NA","NA","NA","NA","19159.934997558594","NA","64493.70312690735","32985.215187072754","63970.00002861023","NA","26325.963020324707","NA","19156.79097175598","66265.19298553467","NA","15792.59204864502","NA","NA","New experiment","5","26607.805728912354","10","1024"
"45","NA","45","2684","2684","#3d3846","psycho","NA","0","undefined","undefined","0","left","0","0","0","0","0","0","0","10","NA","0","10","0","0","NA","NA","NA","0","NA","NA","NA","NA","NA","0","NA","10","0","10","0","0","0","0","10","0","0","0","NA","Sat Oct 28 18:10:58 2023","50","The main experiment item","yes","CogPsy_Assignment_With_Instruction.osexp","/home/matt/Documents/VU/MS/Cognitive_Psychology/project","no","mono","no","18","no","white","no","Student","yes","768","/home/matt/Documents/VU/MS/Cognitive_Psychology/project/code/responses/with_ins/subject-666.csv","fake","Melodramatic Milgram","4.0.6","NoNumOnThread_BlurryWatermark","right","right","NA","right","right","NA","right","2921.2920665740967","2111.8569374084473","NA","6627.05397605896","1999.8559951782227","NA","2921.2920665740967","NA","NA","2","fake_2_50","1024","2","48000","-16","experiment","666","even","15801.614046096802","NA","8025.037050247192","22808.616161346436","NA","12606.894969940186","5896.587133407593","66412.95313835144","NA","NA","66927.10995674133","26357.88917541504","5999.855995178223","NA","NA","NA","NA","NA","NA","NA","NA","NA","19159.934997558594","NA","66927.64806747437","32985.215187072754","66405.0760269165","NA","26325.963020324707","NA","19156.79097175598","69849.23315048218","NA","15792.59204864502","NA","NA","New experiment","5","29529.09779548645","11","1024"
"41","NA","41","2569","2569","#3d3846","psycho","NA","0","undefined","undefined","0","left","0","0","0","0","0","0","0","11","NA","0","11","0","0","NA","NA","NA","0","NA","NA","NA","NA","NA","0","NA","11","0","11","0","0","0","0","11","0","0","0","NA","Sat Oct 28 18:10:58 2023","20","The main experiment item","yes","CogPsy_Assignment_With_Instruction.osexp","/home/matt/Documents/VU/MS/Cognitive_Psychology/project","no","mono","no","18","no","white","no","Student","yes","768","/home/matt/Documents/VU/MS/Cognitive_Psychology/project/code/responses/with_ins/subject-666.csv","fake","Melodramatic Milgram","4.0.6","DullHologram2","right","right","NA","right","right","NA","right","1303.8270473480225","2111.8569374084473","NA","6627.05397605896","1999.8559951782227","NA","1303.8270473480225","NA","NA","2","fake_20","1024","2","48000","-16","experiment","666","even","15801.614046096802","NA","8025.037050247192","22808.616161346436","NA","12606.894969940186","5896.587133407593","70010.32614707947","NA","NA","70527.42314338684","26357.88917541504","5999.855995178223","NA","NA","NA","NA","NA","NA","NA","NA","NA","19159.934997558594","NA","70529.09398078918","32985.215187072754","69990.81707000732","NA","26325.963020324707","NA","19156.79097175598","71833.35900306702","NA","15792.59204864502","NA","NA","New experiment","5","30832.924842834473","12","1024"
"46","NA","46","2575","2575","#3d3846","psycho","NA","1","undefined","undefined","1","left","0","0","0","0","0","0","0","12","NA","0","12","0","0","NA","NA","NA","0","NA","NA","NA","NA","NA","0","NA","12","0","12","0","0","0","0","12","0","0","0","NA","Sat Oct 28 18:10:58 2023","20","The main experiment item","yes","CogPsy_Assignment_With_Instruction.osexp","/home/matt/Documents/VU/MS/Cognitive_Psychology/project","no","mono","no","18","no","white","no","Student","yes","768","/home/matt/Documents/VU/MS/Cognitive_Psychology/project/code/responses/with_ins/subject-666.csv","fake","Melodramatic Milgram","4.0.6","bottom_left","left","right","NA","right","right","NA","left","2649.122953414917","2111.8569374084473","NA","6627.05397605896","1999.8559951782227","NA","2649.122953414917","NA","NA","2","fake_1_20","1024","2","48000","-16","experiment","666","even","15801.614046096802","NA","8025.037050247192","22808.616161346436","NA","12606.894969940186","5896.587133407593","71993.70503425598","NA","NA","72510.59699058533","26357.88917541504","5999.855995178223","NA","NA","NA","NA","NA","NA","NA","NA","NA","19159.934997558594","NA","72511.81507110596","32985.215187072754","71983.05201530457","NA","26325.963020324707","NA","19156.79097175598","75161.29207611084","NA","15792.59204864502","NA","NA","New experiment","6","33482.04779624939","13","1024"
"42","NA","42","2452","2452","#3d3846","psycho","NA","0","undefined","undefined","0","left","0","0","0","0","0","0","0","13","NA","0","13","0","0","NA","NA","NA","0","NA","NA","NA","NA","NA","0","NA","13","0","13","0","0","0","0","13","0","0","0","NA","Sat Oct 28 18:10:58 2023","50","The main experiment item","yes","CogPsy_Assignment_With_Instruction.osexp","/home/matt/Documents/VU/MS/Cognitive_Psychology/project","no","mono","no","18","no","white","no","Student","yes","768","/home/matt/Documents/VU/MS/Cognitive_Psychology/project/code/responses/with_ins/subject-666.csv","fake","Melodramatic Milgram","4.0.6","BadInk","right","right","NA","right","right","NA","right","852.3209095001221","2111.8569374084473","NA","6627.05397605896","1999.8559951782227","NA","852.3209095001221","NA","NA","2","fake_2_50","1024","2","48000","-16","experiment","666","even","15801.614046096802","NA","8025.037050247192","22808.616161346436","NA","12606.894969940186","5896.587133407593","75327.71706581116","NA","NA","75844.2931175232","26357.88917541504","5999.855995178223","NA","NA","NA","NA","NA","NA","NA","NA","NA","19159.934997558594","NA","75844.6261882782","32985.215187072754","75312.00098991394","NA","26325.963020324707","NA","19156.79097175598","76697.23916053772","NA","15792.59204864502","NA","NA","New experiment","6","34334.36870574951","14","1024"
"46","NA","46","2392","2392","#3d3846","psycho","NA","1","undefined","undefined","1","right","0","0","0","0","0","0","0","14","NA","0","14","0","0","NA","NA","NA","0","NA","NA","NA","NA","NA","0","NA","14","0","14","0","0","0","0","14","0","0","0","NA","Sat Oct 28 18:10:58 2023","50","The main experiment item","yes","CogPsy_Assignment_With_Instruction.osexp","/home/matt/Documents/VU/MS/Cognitive_Psychology/project","no","mono","no","18","no","white","no","Student","yes","768","/home/matt/Documents/VU/MS/Cognitive_Psychology/project/code/responses/with_ins/subject-666.csv","real","Melodramatic Milgram","4.0.6","photo","right","right","NA","right","right","NA","right","1558.6938858032227","2111.8569374084473","NA","6627.05397605896","1999.8559951782227","NA","1558.6938858032227","NA","NA","2","real_50","1024","2","48000","-16","experiment","666","even","15801.614046096802","NA","8025.037050247192","22808.616161346436","NA","12606.894969940186","5896.587133407593","76864.10117149353","NA","NA","77377.89511680603","26357.88917541504","5999.855995178223","NA","NA","NA","NA","NA","NA","NA","NA","NA","19159.934997558594","NA","77378.27110290527","32985.215187072754","76840.92903137207","NA","26325.963020324707","NA","19156.79097175598","78937.26706504822","NA","15792.59204864502","NA","NA","New experiment","7","35893.062591552734","15","1024"
"43","NA","43","2316","2316","#3d3846","psycho","NA","0","undefined","undefined","0","left","0","0","0","0","0","0","0","15","NA","0","15","0","0","NA","NA","NA","0","NA","NA","NA","NA","NA","0","NA","15","0","15","0","0","0","0","15","0","0","0","NA","Sat Oct 28 18:10:58 2023","20","The main experiment item","yes","CogPsy_Assignment_With_Instruction.osexp","/home/matt/Documents/VU/MS/Cognitive_Psychology/project","no","mono","no","18","no","white","no","Student","yes","768","/home/matt/Documents/VU/MS/Cognitive_Psychology/project/code/responses/with_ins/subject-666.csv","fake","Melodramatic Milgram","4.0.6","bottom_left","right","right","NA","right","right","NA","right","1166.935920715332","2111.8569374084473","NA","6627.05397605896","1999.8559951782227","NA","1166.935920715332","NA","NA","2","fake_1_20","1024","2","48000","-16","experiment","666","even","15801.614046096802","NA","8025.037050247192","22808.616161346436","NA","12606.894969940186","5896.587133407593","79062.39914894104","NA","NA","79577.67009735107","26357.88917541504","5999.855995178223","NA","NA","NA","NA","NA","NA","NA","NA","NA","19159.934997558594","NA","79578.03606987","32985.215187072754","79054.1341304779","NA","26325.963020324707","NA","19156.79097175598","80745.27406692505","NA","15792.59204864502","NA","NA","New experiment","7","37059.99851226807","16","1024"
"41","NA","41","2328","2328","#3d3846","psycho","NA","0","undefined","undefined","0","left","0","0","0","0","0","0","0","16","NA","0","16","0","0","NA","NA","NA","0","NA","NA","NA","NA","NA","0","NA","16","0","16","0","0","0","0","16","0","0","0","NA","Sat Oct 28 18:10:58 2023","20","The main experiment item","yes","CogPsy_Assignment_With_Instruction.osexp","/home/matt/Documents/VU/MS/Cognitive_Psychology/project","no","mono","no","18","no","white","no","Student","yes","768","/home/matt/Documents/VU/MS/Cognitive_Psychology/project/code/responses/with_ins/subject-666.csv","fake","Melodramatic Milgram","4.0.6","BadInk2","right","right","NA","right","right","NA","right","2530.766010284424","2111.8569374084473","NA","6627.05397605896","1999.8559951782227","NA","2530.766010284424","NA","NA","2","fake_20","1024","2","48000","-16","experiment","666","even","15801.614046096802","NA","8025.037050247192","22808.616161346436","NA","12606.894969940186","5896.587133407593","80911.34214401245","NA","NA","81428.07698249817","26357.88917541504","5999.855995178223","NA","NA","NA","NA","NA","NA","NA","NA","NA","19159.934997558594","NA","81430.17911911011","32985.215187072754","80897.61996269226","NA","26325.963020324707","NA","19156.79097175598","83961.24505996704","NA","15792.59204864502","NA","NA","New experiment","7","39590.76452255249","17","1024"
"38","NA","38","2261","2261","#3d3846","psycho","NA","0","undefined","undefined","0","left","0","0","0","0","0","0","0","17","NA","0","17","0","0","NA","NA","NA","0","NA","NA","NA","NA","NA","0","NA","17","0","17","0","0","0","0","17","0","0","0","NA","Sat Oct 28 18:10:58 2023","20","The main experiment item","yes","CogPsy_Assignment_With_Instruction.osexp","/home/matt/Documents/VU/MS/Cognitive_Psychology/project","no","mono","no","18","no","white","no","Student","yes","768","/home/matt/Documents/VU/MS/Cognitive_Psychology/project/code/responses/with_ins/subject-666.csv","fake","Melodramatic Milgram","4.0.6","NoNumOnThread_BlurryWatermark","right","right","NA","right","right","NA","right","1123.311996459961","2111.8569374084473","NA","6627.05397605896","1999.8559951782227","NA","1123.311996459961","NA","NA","2","fake_20","1024","2","48000","-16","experiment","666","even","15801.614046096802","NA","8025.037050247192","22808.616161346436","NA","12606.894969940186","5896.587133407593","84148.79417419434","NA","NA","84661.29517555237","26357.88917541504","5999.855995178223","NA","NA","NA","NA","NA","NA","NA","NA","NA","19159.934997558594","NA","84661.63611412048","32985.215187072754","84140.15412330627","NA","26325.963020324707","NA","19156.79097175598","85785.2840423584","NA","15792.59204864502","NA","NA","New experiment","7","40714.07651901245","18","1024"
"36","NA","36","2234","2234","#3d3846","psycho","NA","0","undefined","undefined","0","left","0","0","0","0","0","0","0","18","NA","0","18","0","0","NA","NA","NA","0","NA","NA","NA","NA","NA","0","NA","18","0","18","0","0","0","0","18","0","0","0","NA","Sat Oct 28 18:10:58 2023","20","The main experiment item","yes","CogPsy_Assignment_With_Instruction.osexp","/home/matt/Documents/VU/MS/Cognitive_Psychology/project","no","mono","no","18","no","white","no","Student","yes","768","/home/matt/Documents/VU/MS/Cognitive_Psychology/project/code/responses/with_ins/subject-666.csv","fake","Melodramatic Milgram","4.0.6","BrownDenomination","right","right","NA","right","right","NA","right","1739.717960357666","2111.8569374084473","NA","6627.05397605896","1999.8559951782227","NA","1739.717960357666","NA","NA","2","fake_20","1024","2","48000","-16","experiment","666","even","15801.614046096802","NA","8025.037050247192","22808.616161346436","NA","12606.894969940186","5896.587133407593","85931.21004104614","NA","NA","86444.64111328125","26357.88917541504","5999.855995178223","NA","NA","NA","NA","NA","NA","NA","NA","NA","19159.934997558594","NA","86445.19114494324","32985.215187072754","85923.06017875671","NA","26325.963020324707","NA","19156.79097175598","88185.23001670837","NA","15792.59204864502","NA","NA","New experiment","7","42453.79447937012","19","1024"
"35","NA","35","2154","2154","#3d3846","psycho","NA","0","undefined","undefined","0","left","0","0","0","0","0","0","0","19","NA","0","19","0","0","NA","NA","NA","0","NA","NA","NA","NA","NA","0","NA","19","0","19","0","0","0","0","19","0","0","0","NA","Sat Oct 28 18:10:58 2023","20","The main experiment item","yes","CogPsy_Assignment_With_Instruction.osexp","/home/matt/Documents/VU/MS/Cognitive_Psychology/project","no","mono","no","18","no","white","no","Student","yes","768","/home/matt/Documents/VU/MS/Cognitive_Psychology/project/code/responses/with_ins/subject-666.csv","fake","Melodramatic Milgram","4.0.6","BrownDenomination","right","right","NA","right","right","NA","right","636.1708641052246","2111.8569374084473","NA","6627.05397605896","1999.8559951782227","NA","636.1708641052246","NA","NA","2","fake_20","1024","2","48000","-16","experiment","666","even","15801.614046096802","NA","8025.037050247192","22808.616161346436","NA","12606.894969940186","5896.587133407593","88332.39102363586","NA","NA","88844.60711479187","26357.88917541504","5999.855995178223","NA","NA","NA","NA","NA","NA","NA","NA","NA","19159.934997558594","NA","88844.76613998413","32985.215187072754","88323.979139328","NA","26325.963020324707","NA","19156.79097175598","89481.25004768372","NA","15792.59204864502","NA","NA","New experiment","7","43089.96534347534","20","1024"
"38","NA","38","2075","2075","#3d3846","psycho","NA","1","undefined","undefined","1","right","0","0","0","0","0","0","0","20","NA","0","20","0","0","NA","NA","NA","0","NA","NA","NA","NA","NA","0","NA","20","0","20","0","0","0","0","20","0","0","0","NA","Sat Oct 28 18:10:58 2023","50","The main experiment item","yes","CogPsy_Assignment_With_Instruction.osexp","/home/matt/Documents/VU/MS/Cognitive_Psychology/project","no","mono","no","18","no","white","no","Student","yes","768","/home/matt/Documents/VU/MS/Cognitive_Psychology/project/code/responses/with_ins/subject-666.csv","real","Melodramatic Milgram","4.0.6","photo","right","right","NA","right","right","NA","right","487.9570007324219","2111.8569374084473","NA","6627.05397605896","1999.8559951782227","NA","487.9570007324219","NA","NA","2","real_50","1024","2","48000","-16","experiment","666","even","15801.614046096802","NA","8025.037050247192","22808.616161346436","NA","12606.894969940186","5896.587133407593","89630.9700012207","NA","NA","90144.84810829163","26357.88917541504","5999.855995178223","NA","NA","NA","NA","NA","NA","NA","NA","NA","19159.934997558594","NA","90145.01714706421","32985.215187072754","89622.79510498047","NA","26325.963020324707","NA","19156.79097175598","90633.30101966858","NA","15792.59204864502","NA","NA","New experiment","8","43577.922344207764","21","1024"
"36","NA","36","2045","2045","#3d3846","psycho","NA","0","undefined","undefined","0","left","0","0","0","0","0","0","0","21","NA","0","21","0","0","NA","NA","NA","0","NA","NA","NA","NA","NA","0","NA","21","0","21","0","0","0","0","21","0","0","0","NA","Sat Oct 28 18:10:58 2023","20","The main experiment item","yes","CogPsy_Assignment_With_Instruction.osexp","/home/matt/Documents/VU/MS/Cognitive_Psychology/project","no","mono","no","18","no","white","no","Student","yes","768","/home/matt/Documents/VU/MS/Cognitive_Psychology/project/code/responses/with_ins/subject-666.csv","fake","Melodramatic Milgram","4.0.6","silver_strip","right","right","NA","right","right","NA","right","1416.1310195922852","2111.8569374084473","NA","6627.05397605896","1999.8559951782227","NA","1416.1310195922852","NA","NA","2","fake_2_20","1024","2","48000","-16","experiment","666","even","15801.614046096802","NA","8025.037050247192","22808.616161346436","NA","12606.894969940186","5896.587133407593","90778.45215797424","NA","NA","91295.1021194458","26357.88917541504","5999.855995178223","NA","NA","NA","NA","NA","NA","NA","NA","NA","19159.934997558594","NA","91296.80705070496","32985.215187072754","90765.90418815613","NA","26325.963020324707","NA","19156.79097175598","92713.27209472656","NA","15792.59204864502","NA","NA","New experiment","8","44994.05336380005","22","1024"
"39","NA","39","2007","2007","#3d3846","psycho","NA","1","undefined","undefined","1","right","0","0","0","0","0","0","0","22","NA","0","22","0","0","NA","NA","NA","0","NA","NA","NA","NA","NA","0","NA","22","0","22","0","0","0","0","22","0","0","0","NA","Sat Oct 28 18:10:58 2023","50","The main experiment item","yes","CogPsy_Assignment_With_Instruction.osexp","/home/matt/Documents/VU/MS/Cognitive_Psychology/project","no","mono","no","18","no","white","no","Student","yes","768","/home/matt/Documents/VU/MS/Cognitive_Psychology/project/code/responses/with_ins/subject-666.csv","real","Melodramatic Milgram","4.0.6","photo_2","right","right","NA","right","right","NA","right","1188.3888244628906","2111.8569374084473","NA","6627.05397605896","1999.8559951782227","NA","1188.3888244628906","NA","NA","2","real_50","1024","2","48000","-16","experiment","666","even","15801.614046096802","NA","8025.037050247192","22808.616161346436","NA","12606.894969940186","5896.587133407593","92861.5550994873","NA","NA","93378.50403785706","26357.88917541504","5999.855995178223","NA","NA","NA","NA","NA","NA","NA","NA","NA","19159.934997558594","NA","93380.59616088867","32985.215187072754","92845.56412696838","NA","26325.963020324707","NA","19156.79097175598","94569.30303573608","NA","15792.59204864502","NA","NA","New experiment","9","46182.44218826294","23","1024"
"41","NA","41","1971","1971","#3d3846","psycho","NA","1","undefined","undefined","1","left","0","0","0","0","0","0","0","23","NA","0","23","0","0","NA","NA","NA","0","NA","NA","NA","NA","NA","0","NA","23","0","23","0","0","0","0","23","0","0","0","NA","Sat Oct 28 18:10:58 2023","50","The main experiment item","yes","CogPsy_Assignment_With_Instruction.osexp","/home/matt/Documents/VU/MS/Cognitive_Psychology/project","no","mono","no","18","no","white","no","Student","yes","768","/home/matt/Documents/VU/MS/Cognitive_Psychology/project/code/responses/with_ins/subject-666.csv","fake","Melodramatic Milgram","4.0.6","silver_strip","left","right","NA","right","right","NA","left","1130.2070617675781","2111.8569374084473","NA","6627.05397605896","1999.8559951782227","NA","1130.2070617675781","NA","NA","2","fake_2_50","1024","2","48000","-16","experiment","666","even","15801.614046096802","NA","8025.037050247192","22808.616161346436","NA","12606.894969940186","5896.587133407593","94711.70210838318","NA","NA","95228.64508628845","26357.88917541504","5999.855995178223","NA","NA","NA","NA","NA","NA","NA","NA","NA","19159.934997558594","NA","95230.76605796814","32985.215187072754","94692.99817085266","NA","26325.963020324707","NA","19156.79097175598","96361.30499839783","NA","15792.59204864502","NA","NA","New experiment","10","47312.64925003052","24","1024"
"40","NA","40","1971","1971","#3d3846","psycho","NA","0","undefined","undefined","0","right","0","0","0","0","0","0","0","24","NA","0","24","0","0","NA","NA","NA","0","NA","NA","NA","NA","NA","0","NA","24","0","24","0","0","0","0","24","0","0","0","NA","Sat Oct 28 18:10:58 2023","20","The main experiment item","yes","CogPsy_Assignment_With_Instruction.osexp","/home/matt/Documents/VU/MS/Cognitive_Psychology/project","no","mono","no","18","no","white","no","Student","yes","768","/home/matt/Documents/VU/MS/Cognitive_Psychology/project/code/responses/with_ins/subject-666.csv","real","Melodramatic Milgram","4.0.6","photo","left","right","NA","right","right","NA","left","1985.827922821045","2111.8569374084473","NA","6627.05397605896","1999.8559951782227","NA","1985.827922821045","NA","NA","2","real_20","1024","2","48000","-16","experiment","666","even","15801.614046096802","NA","8025.037050247192","22808.616161346436","NA","12606.894969940186","5896.587133407593","96545.07517814636","NA","NA","97061.92302703857","26357.88917541504","5999.855995178223","NA","NA","NA","NA","NA","NA","NA","NA","NA","19159.934997558594","NA","97063.12108039856","32985.215187072754","96533.51998329163","NA","26325.963020324707","NA","19156.79097175598","99049.27396774292","NA","15792.59204864502","NA","NA","New experiment","10","49298.47717285156","25","1024"
"42","NA","42","1930","1930","#3d3846","psycho","NA","1","undefined","undefined","1","right","0","0","0","0","0","0","0","25","NA","0","25","0","0","NA","NA","NA","0","NA","NA","NA","NA","NA","0","NA","25","0","25","0","0","0","0","25","0","0","0","NA","Sat Oct 28 18:10:58 2023","50","The main experiment item","yes","CogPsy_Assignment_With_Instruction.osexp","/home/matt/Documents/VU/MS/Cognitive_Psychology/project","no","mono","no","18","no","white","no","Student","yes","768","/home/matt/Documents/VU/MS/Cognitive_Psychology/project/code/responses/with_ins/subject-666.csv","real","Melodramatic Milgram","4.0.6","photo_2","right","right","NA","right","right","NA","right","902.7359485626221","2111.8569374084473","NA","6627.05397605896","1999.8559951782227","NA","902.7359485626221","NA","NA","2","real_50","1024","2","48000","-16","experiment","666","even","15801.614046096802","NA","8025.037050247192","22808.616161346436","NA","12606.894969940186","5896.587133407593","99195.49798965454","NA","NA","99712.22400665283","26357.88917541504","5999.855995178223","NA","NA","NA","NA","NA","NA","NA","NA","NA","19159.934997558594","NA","99714.23411369324","32985.215187072754","99182.10911750793","NA","26325.963020324707","NA","19156.79097175598","100617.31100082397","NA","15792.59204864502","NA","NA","New experiment","11","50201.213121414185","26","1024"
"40","NA","40","1927","1927","#3d3846","psycho","NA","0","undefined","undefined","0","left","0","0","0","0","0","0","0","26","NA","0","26","0","0","NA","NA","NA","0","NA","NA","NA","NA","NA","0","NA","26","0","26","0","0","0","0","26","0","0","0","NA","Sat Oct 28 18:10:58 2023","50","The main experiment item","yes","CogPsy_Assignment_With_Instruction.osexp","/home/matt/Documents/VU/MS/Cognitive_Psychology/project","no","mono","no","18","no","white","no","Student","yes","768","/home/matt/Documents/VU/MS/Cognitive_Psychology/project/code/responses/with_ins/subject-666.csv","fake","Melodramatic Milgram","4.0.6","GreyDenomination","right","right","NA","right","right","NA","right","1830.6870460510254","2111.8569374084473","NA","6627.05397605896","1999.8559951782227","NA","1830.6870460510254","NA","NA","2","fake_2_50","1024","2","48000","-16","experiment","666","even","15801.614046096802","NA","8025.037050247192","22808.616161346436","NA","12606.894969940186","5896.587133407593","100778.87797355652","NA","NA","101295.63903808594","26357.88917541504","5999.855995178223","NA","NA","NA","NA","NA","NA","NA","NA","NA","19159.934997558594","NA","101298.25711250305","32985.215187072754","100765.55514335632","NA","26325.963020324707","NA","19156.79097175598","103129.28199768066","NA","15792.59204864502","NA","NA","New experiment","11","52031.90016746521","27","1024"
"39","NA","39","1881","1881","#3d3846","psycho","NA","0","undefined","undefined","0","left","0","0","0","0","0","0","0","27","NA","0","27","0","0","NA","NA","NA","0","NA","NA","NA","NA","NA","0","NA","27","0","27","0","0","0","0","27","0","0","0","NA","Sat Oct 28 18:10:58 2023","50","The main experiment item","yes","CogPsy_Assignment_With_Instruction.osexp","/home/matt/Documents/VU/MS/Cognitive_Psychology/project","no","mono","no","18","no","white","no","Student","yes","768","/home/matt/Documents/VU/MS/Cognitive_Psychology/project/code/responses/with_ins/subject-666.csv","fake","Melodramatic Milgram","4.0.6","bottom_left","right","right","NA","right","right","NA","right","660.1121425628662","2111.8569374084473","NA","6627.05397605896","1999.8559951782227","NA","660.1121425628662","NA","NA","2","fake_1_50","1024","2","48000","-16","experiment","666","even","15801.614046096802","NA","8025.037050247192","22808.616161346436","NA","12606.894969940186","5896.587133407593","103262.16912269592","NA","NA","103779.19006347656","26357.88917541504","5999.855995178223","NA","NA","NA","NA","NA","NA","NA","NA","NA","19159.934997558594","NA","103780.86996078491","32985.215187072754","103244.62008476257","NA","26325.963020324707","NA","19156.79097175598","104441.33615493774","NA","15792.59204864502","NA","NA","New experiment","11","52692.012310028076","28","1024"
"37","NA","37","1846","1846","#3d3846","psycho","NA","0","undefined","undefined","0","left","0","0","0","0","0","0","0","28","NA","0","28","0","0","NA","NA","NA","0","NA","NA","NA","NA","NA","0","NA","28","0","28","0","0","0","0","28","0","0","0","NA","Sat Oct 28 18:10:58 2023","20","The main experiment item","yes","CogPsy_Assignment_With_Instruction.osexp","/home/matt/Documents/VU/MS/Cognitive_Psychology/project","no","mono","no","18","no","white","no","Student","yes","768","/home/matt/Documents/VU/MS/Cognitive_Psychology/project/code/responses/with_ins/subject-666.csv","fake","Melodramatic Milgram","4.0.6","PurpleDenomination","right","right","NA","right","right","NA","right","848.9830493927002","2111.8569374084473","NA","6627.05397605896","1999.8559951782227","NA","848.9830493927002","NA","NA","2","fake_20","1024","2","48000","-16","experiment","666","even","15801.614046096802","NA","8025.037050247192","22808.616161346436","NA","12606.894969940186","5896.587133407593","104581.59518241882","NA","NA","105095.81708908081","26357.88917541504","5999.855995178223","NA","NA","NA","NA","NA","NA","NA","NA","NA","19159.934997558594","NA","105095.97206115723","32985.215187072754","104573.19617271423","NA","26325.963020324707","NA","19156.79097175598","105945.2931880951","NA","15792.59204864502","NA","NA","New experiment","11","53540.99535942078","29","1024"
"40","NA","40","1813","1813","#3d3846","psycho","NA","1","undefined","undefined","1","left","0","0","0","0","0","0","0","29","NA","0","29","0","0","NA","NA","NA","0","NA","NA","NA","NA","NA","0","NA","29","0","29","0","0","0","0","29","0","0","0","NA","Sat Oct 28 18:10:58 2023","20","The main experiment item","yes","CogPsy_Assignment_With_Instruction.osexp","/home/matt/Documents/VU/MS/Cognitive_Psychology/project","no","mono","no","18","no","white","no","Student","yes","768","/home/matt/Documents/VU/MS/Cognitive_Psychology/project/code/responses/with_ins/subject-666.csv","fake","Melodramatic Milgram","4.0.6","silver_strip","left","right","NA","right","right","NA","left","851.5889644622803","2111.8569374084473","NA","6627.05397605896","1999.8559951782227","NA","851.5889644622803","NA","NA","2","fake_2_20","1024","2","48000","-16","experiment","666","even","15801.614046096802","NA","8025.037050247192","22808.616161346436","NA","12606.894969940186","5896.587133407593","106079.25701141357","NA","NA","106595.95608711243","26357.88917541504","5999.855995178223","NA","NA","NA","NA","NA","NA","NA","NA","NA","19159.934997558594","NA","106597.37300872803","32985.215187072754","106070.42098045349","NA","26325.963020324707","NA","19156.79097175598","107449.32699203491","NA","15792.59204864502","NA","NA","New experiment","12","54392.58432388306","30","1024"
"41","NA","41","1770","1770","#3d3846","psycho","NA","1","undefined","undefined","1","right","0","0","0","0","0","0","0","30","NA","0","30","0","0","NA","NA","NA","0","NA","NA","NA","NA","NA","0","NA","30","0","30","0","0","0","0","30","0","0","0","NA","Sat Oct 28 18:10:58 2023","50","The main experiment item","yes","CogPsy_Assignment_With_Instruction.osexp","/home/matt/Documents/VU/MS/Cognitive_Psychology/project","no","mono","no","18","no","white","no","Student","yes","768","/home/matt/Documents/VU/MS/Cognitive_Psychology/project/code/responses/with_ins/subject-666.csv","real","Melodramatic Milgram","4.0.6","photo_2","right","right","NA","right","right","NA","right","503.5369396209717","2111.8569374084473","NA","6627.05397605896","1999.8559951782227","NA","503.5369396209717","NA","NA","2","real_50","1024","2","48000","-16","experiment","666","even","15801.614046096802","NA","8025.037050247192","22808.616161346436","NA","12606.894969940186","5896.587133407593","107596.02499008179","NA","NA","108112.75601387024","26357.88917541504","5999.855995178223","NA","NA","NA","NA","NA","NA","NA","NA","NA","19159.934997558594","NA","108113.39402198792","32985.215187072754","107581.16817474365","NA","26325.963020324707","NA","19156.79097175598","108617.29907989502","NA","15792.59204864502","NA","NA","New experiment","13","54896.12126350403","31","1024"
"43","NA","43","1746","1746","#3d3846","psycho","NA","1","undefined","undefined","1","left","0","0","0","0","0","0","0","31","NA","0","31","0","0","NA","NA","NA","0","NA","NA","NA","NA","NA","0","NA","31","0","31","0","0","0","0","31","0","0","0","NA","Sat Oct 28 18:10:58 2023","20","The main experiment item","yes","CogPsy_Assignment_With_Instruction.osexp","/home/matt/Documents/VU/MS/Cognitive_Psychology/project","no","mono","no","18","no","white","no","Student","yes","768","/home/matt/Documents/VU/MS/Cognitive_Psychology/project/code/responses/with_ins/subject-666.csv","fake","Melodramatic Milgram","4.0.6","DullHologram","left","right","NA","right","right","NA","left","984.6451282501221","2111.8569374084473","NA","6627.05397605896","1999.8559951782227","NA","984.6451282501221","NA","NA","2","fake_20","1024","2","48000","-16","experiment","666","even","15801.614046096802","NA","8025.037050247192","22808.616161346436","NA","12606.894969940186","5896.587133407593","108779.4680595398","NA","NA","109295.84813117981","26357.88917541504","5999.855995178223","NA","NA","NA","NA","NA","NA","NA","NA","NA","19159.934997558594","NA","109296.33903503418","32985.215187072754","108765.41304588318","NA","26325.963020324707","NA","19156.79097175598","110281.34417533875","NA","15792.59204864502","NA","NA","New experiment","14","55880.76639175415","32","1024"
"42","NA","42","1712","1712","#3d3846","psycho","NA","0","undefined","undefined","0","right","0","0","0","0","0","0","0","32","NA","0","32","0","0","NA","NA","NA","0","NA","NA","NA","NA","NA","0","NA","32","0","32","0","0","0","0","32","0","0","0","NA","Sat Oct 28 18:10:58 2023","20","The main experiment item","yes","CogPsy_Assignment_With_Instruction.osexp","/home/matt/Documents/VU/MS/Cognitive_Psychology/project","no","mono","no","18","no","white","no","Student","yes","768","/home/matt/Documents/VU/MS/Cognitive_Psychology/project/code/responses/with_ins/subject-666.csv","real","Melodramatic Milgram","4.0.6","genuine","left","right","NA","right","right","NA","left","629.7519207000732","2111.8569374084473","NA","6627.05397605896","1999.8559951782227","NA","629.7519207000732","NA","NA","2","real_20","1024","2","48000","-16","experiment","666","even","15801.614046096802","NA","8025.037050247192","22808.616161346436","NA","12606.894969940186","5896.587133407593","110412.91904449463","NA","NA","110929.52704429626","26357.88917541504","5999.855995178223","NA","NA","NA","NA","NA","NA","NA","NA","NA","19159.934997558594","NA","110931.21409416199","32985.215187072754","110401.14998817444","NA","26325.963020324707","NA","19156.79097175598","111561.33604049683","NA","15792.59204864502","NA","NA","New experiment","14","56510.51831245422","33","1024"
"41","NA","41","1680","1680","#3d3846","psycho","NA","0","undefined","undefined","0","right","0","0","0","0","0","0","0","33","NA","0","33","0","0","NA","NA","NA","0","NA","NA","NA","NA","NA","0","NA","33","0","33","0","0","0","0","33","0","0","0","NA","Sat Oct 28 18:10:58 2023","20","The main experiment item","yes","CogPsy_Assignment_With_Instruction.osexp","/home/matt/Documents/VU/MS/Cognitive_Psychology/project","no","mono","no","18","no","white","no","Student","yes","768","/home/matt/Documents/VU/MS/Cognitive_Psychology/project/code/responses/with_ins/subject-666.csv","real","Melodramatic Milgram","4.0.6","genuine","left","right","NA","right","right","NA","left","627.8848648071289","2111.8569374084473","NA","6627.05397605896","1999.8559951782227","NA","627.8848648071289","NA","NA","2","real_20","1024","2","48000","-16","experiment","666","even","15801.614046096802","NA","8025.037050247192","22808.616161346436","NA","12606.894969940186","5896.587133407593","111698.97198677063","NA","NA","112212.92805671692","26357.88917541504","5999.855995178223","NA","NA","NA","NA","NA","NA","NA","NA","NA","19159.934997558594","NA","112213.09018135071","32985.215187072754","111675.79817771912","NA","26325.963020324707","NA","19156.79097175598","112841.3679599762","NA","15792.59204864502","NA","NA","New experiment","14","57138.40317726135","34","1024"
"42","NA","42","1647","1647","#3d3846","psycho","NA","1","undefined","undefined","1","right","0","0","0","0","0","0","0","34","NA","0","34","0","0","NA","NA","NA","0","NA","NA","NA","NA","NA","0","NA","34","0","34","0","0","0","0","34","0","0","0","NA","Sat Oct 28 18:10:58 2023","50","The main experiment item","yes","CogPsy_Assignment_With_Instruction.osexp","/home/matt/Documents/VU/MS/Cognitive_Psychology/project","no","mono","no","18","no","white","no","Student","yes","768","/home/matt/Documents/VU/MS/Cognitive_Psychology/project/code/responses/with_ins/subject-666.csv","real","Melodramatic Milgram","4.0.6","genuine","right","right","NA","right","right","NA","right","527.8558731079102","2111.8569374084473","NA","6627.05397605896","1999.8559951782227","NA","527.8558731079102","NA","NA","2","real_20","1024","2","48000","-16","experiment","666","even","15801.614046096802","NA","8025.037050247192","22808.616161346436","NA","12606.894969940186","5896.587133407593","112963.40799331665","NA","NA","113479.82716560364","26357.88917541504","5999.855995178223","NA","NA","NA","NA","NA","NA","NA","NA","NA","19159.934997558594","NA","113481.1201095581","32985.215187072754","112955.09815216064","NA","26325.963020324707","NA","19156.79097175598","114009.35506820679","NA","15792.59204864502","NA","NA","New experiment","15","57666.25905036926","35","1024"
"44","NA","44","1615","1615","#3d3846","psycho","NA","1","undefined","undefined","1","left","0","0","0","0","0","0","0","35","NA","0","35","0","0","NA","NA","NA","0","NA","NA","NA","NA","NA","0","NA","35","0","35","0","0","0","0","35","0","0","0","NA","Sat Oct 28 18:10:58 2023","20","The main experiment item","yes","CogPsy_Assignment_With_Instruction.osexp","/home/matt/Documents/VU/MS/Cognitive_Psychology/project","no","mono","no","18","no","white","no","Student","yes","768","/home/matt/Documents/VU/MS/Cognitive_Psychology/project/code/responses/with_ins/subject-666.csv","fake","Melodramatic Milgram","4.0.6","NoNumOnThread_BlurryWatermark","left","right","NA","right","right","NA","left","496.34599685668945","2111.8569374084473","NA","6627.05397605896","1999.8559951782227","NA","496.34599685668945","NA","NA","2","fake_20","1024","2","48000","-16","experiment","666","even","15801.614046096802","NA","8025.037050247192","22808.616161346436","NA","12606.894969940186","5896.587133407593","114180.22203445435","NA","NA","114696.42496109009","26357.88917541504","5999.855995178223","NA","NA","NA","NA","NA","NA","NA","NA","NA","19159.934997558594","NA","114696.61617279053","32985.215187072754","114171.75102233887","NA","26325.963020324707","NA","19156.79097175598","115193.33100318909","NA","15792.59204864502","NA","NA","New experiment","16","58162.60504722595","36","1024"
"43","NA","43","1583","1583","#3d3846","psycho","NA","0","undefined","undefined","0","left","0","0","0","0","0","0","0","36","NA","0","36","0","0","NA","NA","NA","0","NA","NA","NA","NA","NA","0","NA","36","0","36","0","0","0","0","36","0","0","0","NA","Sat Oct 28 18:10:58 2023","50","The main experiment item","yes","CogPsy_Assignment_With_Instruction.osexp","/home/matt/Documents/VU/MS/Cognitive_Psychology/project","no","mono","no","18","no","white","no","Student","yes","768","/home/matt/Documents/VU/MS/Cognitive_Psychology/project/code/responses/with_ins/subject-666.csv","fake","Melodramatic Milgram","4.0.6","PurpleDenomination3","right","right","NA","right","right","NA","right","416.5761470794678","2111.8569374084473","NA","6627.05397605896","1999.8559951782227","NA","416.5761470794678","NA","NA","2","fake_2_50","1024","2","48000","-16","experiment","666","even","15801.614046096802","NA","8025.037050247192","22808.616161346436","NA","12606.894969940186","5896.587133407593","115363.09909820557","NA","NA","115879.8611164093","26357.88917541504","5999.855995178223","NA","NA","NA","NA","NA","NA","NA","NA","NA","19159.934997558594","NA","115880.34200668335","32985.215187072754","115344.36106681824","NA","26325.963020324707","NA","19156.79097175598","116297.29318618774","NA","15792.59204864502","NA","NA","New experiment","16","58579.18119430542","37","1024"
"42","NA","42","1570","1570","#3d3846","psycho","NA","0","undefined","undefined","0","right","0","0","0","0","0","0","0","37","NA","0","37","0","0","NA","NA","NA","0","NA","NA","NA","NA","NA","0","NA","37","0","37","0","0","0","0","37","0","0","0","NA","Sat Oct 28 18:10:58 2023","20","The main experiment item","yes","CogPsy_Assignment_With_Instruction.osexp","/home/matt/Documents/VU/MS/Cognitive_Psychology/project","no","mono","no","18","no","white","no","Student","yes","768","/home/matt/Documents/VU/MS/Cognitive_Psychology/project/code/responses/with_ins/subject-666.csv","real","Melodramatic Milgram","4.0.6","photo","left","right","NA","right","right","NA","left","1090.9368991851807","2111.8569374084473","NA","6627.05397605896","1999.8559951782227","NA","1090.9368991851807","NA","NA","2","real_20","1024","2","48000","-16","experiment","666","even","15801.614046096802","NA","8025.037050247192","22808.616161346436","NA","12606.894969940186","5896.587133407593","116479.97403144836","NA","NA","116996.56009674072","26357.88917541504","5999.855995178223","NA","NA","NA","NA","NA","NA","NA","NA","NA","19159.934997558594","NA","116998.04306030273","32985.215187072754","116462.95499801636","NA","26325.963020324707","NA","19156.79097175598","118089.38503265381","NA","15792.59204864502","NA","NA","New experiment","16","59670.1180934906","38","1024"
"41","NA","41","1552","1552","#3d3846","psycho","NA","0","undefined","undefined","0","left","0","0","0","0","0","0","0","38","NA","0","38","0","0","NA","NA","NA","0","NA","NA","NA","NA","NA","0","NA","38","0","38","0","0","0","0","38","0","0","0","NA","Sat Oct 28 18:10:58 2023","50","The main experiment item","yes","CogPsy_Assignment_With_Instruction.osexp","/home/matt/Documents/VU/MS/Cognitive_Psychology/project","no","mono","no","18","no","white","no","Student","yes","768","/home/matt/Documents/VU/MS/Cognitive_Psychology/project/code/responses/with_ins/subject-666.csv","fake","Melodramatic Milgram","4.0.6","PurpleDenomination3","right","right","NA","right","right","NA","right","893.0768966674805","2111.8569374084473","NA","6627.05397605896","1999.8559951782227","NA","893.0768966674805","NA","NA","2","fake_2_50","1024","2","48000","-16","experiment","666","even","15801.614046096802","NA","8025.037050247192","22808.616161346436","NA","12606.894969940186","5896.587133407593","118246.7269897461","NA","NA","118763.34309577942","26357.88917541504","5999.855995178223","NA","NA","NA","NA","NA","NA","NA","NA","NA","19159.934997558594","NA","118763.92006874084","32985.215187072754","118230.27515411377","NA","26325.963020324707","NA","19156.79097175598","119657.37915039062","NA","15792.59204864502","NA","NA","New experiment","16","60563.19499015808","39","1024"
"40","NA","40","1531","1531","#3d3846","psycho","NA","0","undefined","undefined","0","right","0","0","0","0","0","0","0","39","NA","0","39","0","0","NA","NA","NA","0","NA","NA","NA","NA","NA","0","NA","39","0","39","0","0","0","0","39","0","0","0","NA","Sat Oct 28 18:10:58 2023","20","The main experiment item","yes","CogPsy_Assignment_With_Instruction.osexp","/home/matt/Documents/VU/MS/Cognitive_Psychology/project","no","mono","no","18","no","white","no","Student","yes","768","/home/matt/Documents/VU/MS/Cognitive_Psychology/project/code/responses/with_ins/subject-666.csv","real","Melodramatic Milgram","4.0.6","photo","left","right","NA","right","right","NA","left","699.9828815460205","2111.8569374084473","NA","6627.05397605896","1999.8559951782227","NA","699.9828815460205","NA","NA","2","real_20","1024","2","48000","-16","experiment","666","even","15801.614046096802","NA","8025.037050247192","22808.616161346436","NA","12606.894969940186","5896.587133407593","119830.11412620544","NA","NA","120346.88210487366","26357.88917541504","5999.855995178223","NA","NA","NA","NA","NA","NA","NA","NA","NA","19159.934997558594","NA","120348.9670753479","32985.215187072754","119821.64716720581","NA","26325.963020324707","NA","19156.79097175598","121049.33500289917","NA","15792.59204864502","NA","NA","New experiment","16","61263.1778717041","40","1024"
"39","NA","39","1506","1506","#3d3846","psycho","NA","0","undefined","undefined","0","right","0","0","0","0","0","0","0","40","NA","0","40","0","0","NA","NA","NA","0","NA","NA","NA","NA","NA","0","NA","40","0","40","0","0","0","0","40","0","0","0","NA","Sat Oct 28 18:10:58 2023","20","The main experiment item","yes","CogPsy_Assignment_With_Instruction.osexp","/home/matt/Documents/VU/MS/Cognitive_Psychology/project","no","mono","no","18","no","white","no","Student","yes","768","/home/matt/Documents/VU/MS/Cognitive_Psychology/project/code/responses/with_ins/subject-666.csv","real","Melodramatic Milgram","4.0.6","photo","left","right","NA","right","right","NA","left","500.2560615539551","2111.8569374084473","NA","6627.05397605896","1999.8559951782227","NA","500.2560615539551","NA","NA","2","real_20","1024","2","48000","-16","experiment","666","even","15801.614046096802","NA","8025.037050247192","22808.616161346436","NA","12606.894969940186","5896.587133407593","121230.11207580566","NA","NA","121746.994972229","26357.88917541504","5999.855995178223","NA","NA","NA","NA","NA","NA","NA","NA","NA","19159.934997558594","NA","121748.72708320618","32985.215187072754","121211.96508407593","NA","26325.963020324707","NA","19156.79097175598","122249.37605857849","NA","15792.59204864502","NA","NA","New experiment","16","61763.43393325806","41","1024"
"40","NA","40","1487","1487","#3d3846","psycho","NA","1","undefined","undefined","1","right","0","0","0","0","0","0","0","41","NA","0","41","0","0","NA","NA","NA","0","NA","NA","NA","NA","NA","0","NA","41","0","41","0","0","0","0","41","0","0","0","NA","Sat Oct 28 18:10:58 2023","50","The main experiment item","yes","CogPsy_Assignment_With_Instruction.osexp","/home/matt/Documents/VU/MS/Cognitive_Psychology/project","no","mono","no","18","no","white","no","Student","yes","768","/home/matt/Documents/VU/MS/Cognitive_Psychology/project/code/responses/with_ins/subject-666.csv","real","Melodramatic Milgram","4.0.6","photo","right","right","NA","right","right","NA","right","694.5781707763672","2111.8569374084473","NA","6627.05397605896","1999.8559951782227","NA","694.5781707763672","NA","NA","2","real_50","1024","2","48000","-16","experiment","666","even","15801.614046096802","NA","8025.037050247192","22808.616161346436","NA","12606.894969940186","5896.587133407593","122414.99614715576","NA","NA","122930.251121521","26357.88917541504","5999.855995178223","NA","NA","NA","NA","NA","NA","NA","NA","NA","19159.934997558594","NA","122930.428981781","32985.215187072754","122406.65817260742","NA","26325.963020324707","NA","19156.79097175598","123625.3969669342","NA","15792.59204864502","NA","NA","New experiment","17","62458.012104034424","42","1024"
"41","NA","41","1473","1473","#3d3846","psycho","NA","1","undefined","undefined","1","right","0","0","0","0","0","0","0","42","NA","0","42","0","0","NA","NA","NA","0","NA","NA","NA","NA","NA","0","NA","42","0","42","0","0","0","0","42","0","0","0","NA","Sat Oct 28 18:10:58 2023","50","The main experiment item","yes","CogPsy_Assignment_With_Instruction.osexp","/home/matt/Documents/VU/MS/Cognitive_Psychology/project","no","mono","no","18","no","white","no","Student","yes","768","/home/matt/Documents/VU/MS/Cognitive_Psychology/project/code/responses/with_ins/subject-666.csv","real","Melodramatic Milgram","4.0.6","genuine","right","right","NA","right","right","NA","right","913.154125213623","2111.8569374084473","NA","6627.05397605896","1999.8559951782227","NA","913.154125213623","NA","NA","2","real_20","1024","2","48000","-16","experiment","666","even","15801.614046096802","NA","8025.037050247192","22808.616161346436","NA","12606.894969940186","5896.587133407593","123750.85115432739","NA","NA","124263.66710662842","26357.88917541504","5999.855995178223","NA","NA","NA","NA","NA","NA","NA","NA","NA","19159.934997558594","NA","124263.84401321411","32985.215187072754","123742.54417419434","NA","26325.963020324707","NA","19156.79097175598","125177.40201950073","NA","15792.59204864502","NA","NA","New experiment","18","63371.16622924805","43","1024"
"43","NA","43","1473","1473","#3d3846","psycho","NA","1","undefined","undefined","1","left","0","0","0","0","0","0","0","43","NA","0","43","0","0","NA","NA","NA","0","NA","NA","NA","NA","NA","0","NA","43","0","43","0","0","0","0","43","0","0","0","NA","Sat Oct 28 18:10:58 2023","20","The main experiment item","yes","CogPsy_Assignment_With_Instruction.osexp","/home/matt/Documents/VU/MS/Cognitive_Psychology/project","no","mono","no","18","no","white","no","Student","yes","768","/home/matt/Documents/VU/MS/Cognitive_Psychology/project/code/responses/with_ins/subject-666.csv","fake","Melodramatic Milgram","4.0.6","BadInk","left","right","NA","right","right","NA","left","1473.1669425964355","2111.8569374084473","NA","6627.05397605896","1999.8559951782227","NA","1473.1669425964355","NA","NA","2","fake_20","1024","2","48000","-16","experiment","666","even","15801.614046096802","NA","8025.037050247192","22808.616161346436","NA","12606.894969940186","5896.587133407593","125333.61005783081","NA","NA","125847.27597236633","26357.88917541504","5999.855995178223","NA","NA","NA","NA","NA","NA","NA","NA","NA","19159.934997558594","NA","125847.82314300537","32985.215187072754","125325.28495788574","NA","26325.963020324707","NA","19156.79097175598","127321.40398025513","NA","15792.59204864502","NA","NA","New experiment","19","64844.33317184448","44","1024"
"42","NA","42","1452","1452","#3d3846","psycho","NA","0","undefined","undefined","0","left","0","0","0","0","0","0","0","44","NA","0","44","0","0","NA","NA","NA","0","NA","NA","NA","NA","NA","0","NA","44","0","44","0","0","0","0","44","0","0","0","NA","Sat Oct 28 18:10:58 2023","50","The main experiment item","yes","CogPsy_Assignment_With_Instruction.osexp","/home/matt/Documents/VU/MS/Cognitive_Psychology/project","no","mono","no","18","no","white","no","Student","yes","768","/home/matt/Documents/VU/MS/Cognitive_Psychology/project/code/responses/with_ins/subject-666.csv","fake","Melodramatic Milgram","4.0.6","PurpleDenomination2","right","right","NA","right","right","NA","right","523.0710506439209","2111.8569374084473","NA","6627.05397605896","1999.8559951782227","NA","523.0710506439209","NA","NA","2","fake_2_50","1024","2","48000","-16","experiment","666","even","15801.614046096802","NA","8025.037050247192","22808.616161346436","NA","12606.894969940186","5896.587133407593","127480.45015335083","NA","NA","127997.26796150208","26357.88917541504","5999.855995178223","NA","NA","NA","NA","NA","NA","NA","NA","NA","19159.934997558594","NA","127997.93195724487","32985.215187072754","127461.92002296448","NA","26325.963020324707","NA","19156.79097175598","128521.41904830933","NA","15792.59204864502","NA","NA","New experiment","19","65367.4042224884","45","1024"
"41","NA","41","1432","1432","#3d3846","psycho","NA","0","undefined","undefined","0","left","0","0","0","0","0","0","0","45","NA","0","45","0","0","NA","NA","NA","0","NA","NA","NA","NA","NA","0","NA","45","0","45","0","0","0","0","45","0","0","0","NA","Sat Oct 28 18:10:58 2023","50","The main experiment item","yes","CogPsy_Assignment_With_Instruction.osexp","/home/matt/Documents/VU/MS/Cognitive_Psychology/project","no","mono","no","18","no","white","no","Student","yes","768","/home/matt/Documents/VU/MS/Cognitive_Psychology/project/code/responses/with_ins/subject-666.csv","fake","Melodramatic Milgram","4.0.6","silver_strip","right","right","NA","right","right","NA","right","524.6407985687256","2111.8569374084473","NA","6627.05397605896","1999.8559951782227","NA","524.6407985687256","NA","NA","2","fake_2_50","1024","2","48000","-16","experiment","666","even","15801.614046096802","NA","8025.037050247192","22808.616161346436","NA","12606.894969940186","5896.587133407593","128648.69618415833","NA","NA","129163.94710540771","26357.88917541504","5999.855995178223","NA","NA","NA","NA","NA","NA","NA","NA","NA","19159.934997558594","NA","129164.35718536377","32985.215187072754","128640.42210578918","NA","26325.963020324707","NA","19156.79097175598","129689.4040107727","NA","15792.59204864502","NA","NA","New experiment","19","65892.04502105713","46","1024"
"40","NA","40","1414","1414","#3d3846","psycho","NA","0","undefined","undefined","0","left","0","0","0","0","0","0","0","46","NA","0","46","0","0","NA","NA","NA","0","NA","NA","NA","NA","NA","0","NA","46","0","46","0","0","0","0","46","0","0","0","NA","Sat Oct 28 18:10:58 2023","50","The main experiment item","yes","CogPsy_Assignment_With_Instruction.osexp","/home/matt/Documents/VU/MS/Cognitive_Psychology/project","no","mono","no","18","no","white","no","Student","yes","768","/home/matt/Documents/VU/MS/Cognitive_Psychology/project/code/responses/with_ins/subject-666.csv","fake","Melodramatic Milgram","4.0.6","PurpleDenomination","right","right","NA","right","right","NA","right","604.0940284729004","2111.8569374084473","NA","6627.05397605896","1999.8559951782227","NA","604.0940284729004","NA","NA","2","fake_2_50","1024","2","48000","-16","experiment","666","even","15801.614046096802","NA","8025.037050247192","22808.616161346436","NA","12606.894969940186","5896.587133407593","129830.60598373413","NA","NA","130347.51510620117","26357.88917541504","5999.855995178223","NA","NA","NA","NA","NA","NA","NA","NA","NA","19159.934997558594","NA","130348.89197349548","32985.215187072754","129822.31402397156","NA","26325.963020324707","NA","19156.79097175598","130953.40609550476","NA","15792.59204864502","NA","NA","New experiment","19","66496.13904953003","47","1024"
"41","NA","41","1401","1401","#3d3846","psycho","NA","1","undefined","undefined","1","left","0","0","0","0","0","0","0","47","NA","0","47","0","0","NA","NA","NA","0","NA","NA","NA","NA","NA","0","NA","47","0","47","0","0","0","0","47","0","0","0","NA","Sat Oct 28 18:10:58 2023","20","The main experiment item","yes","CogPsy_Assignment_With_Instruction.osexp","/home/matt/Documents/VU/MS/Cognitive_Psychology/project","no","mono","no","18","no","white","no","Student","yes","768","/home/matt/Documents/VU/MS/Cognitive_Psychology/project/code/responses/with_ins/subject-666.csv","fake","Melodramatic Milgram","4.0.6","DullHologram","left","right","NA","right","right","NA","left","778.6219120025635","2111.8569374084473","NA","6627.05397605896","1999.8559951782227","NA","778.6219120025635","NA","NA","2","fake_20","1024","2","48000","-16","experiment","666","even","15801.614046096802","NA","8025.037050247192","22808.616161346436","NA","12606.894969940186","5896.587133407593","131101.0880470276","NA","NA","131614.06016349792","26357.88917541504","5999.855995178223","NA","NA","NA","NA","NA","NA","NA","NA","NA","19159.934997558594","NA","131614.36414718628","32985.215187072754","131093.09315681458","NA","26325.963020324707","NA","19156.79097175598","132393.40615272522","NA","15792.59204864502","NA","NA","New experiment","20","67274.7609615326","48","1024"
"40","NA","40","1397","1397","#3d3846","psycho","NA","0","undefined","undefined","0","left","0","0","0","0","0","0","0","48","NA","0","48","0","0","NA","NA","NA","0","NA","NA","NA","NA","NA","0","NA","48","0","48","0","0","0","0","48","0","0","0","NA","Sat Oct 28 18:10:58 2023","50","The main experiment item","yes","CogPsy_Assignment_With_Instruction.osexp","/home/matt/Documents/VU/MS/Cognitive_Psychology/project","no","mono","no","18","no","white","no","Student","yes","768","/home/matt/Documents/VU/MS/Cognitive_Psychology/project/code/responses/with_ins/subject-666.csv","fake","Melodramatic Milgram","4.0.6","GreyDenomination","right","right","NA","right","right","NA","right","1199.9189853668213","2111.8569374084473","NA","6627.05397605896","1999.8559951782227","NA","1199.9189853668213","NA","NA","2","fake_2_50","1024","2","48000","-16","experiment","666","even","15801.614046096802","NA","8025.037050247192","22808.616161346436","NA","12606.894969940186","5896.587133407593","132547.31798171997","NA","NA","133064.2580986023","26357.88917541504","5999.855995178223","NA","NA","NA","NA","NA","NA","NA","NA","NA","19159.934997558594","NA","133065.04011154175","32985.215187072754","132537.68706321716","NA","26325.963020324707","NA","19156.79097175598","134265.4299736023","NA","15792.59204864502","NA","NA","New experiment","20","68474.67994689941","49","1024"
"42","NA","42","1384","1384","#3d3846","psycho","NA","1","undefined","undefined","1","right","0","0","0","0","0","0","0","49","NA","0","49","0","0","NA","NA","NA","0","NA","NA","NA","NA","NA","0","NA","49","0","49","0","0","0","0","49","0","0","0","NA","Sat Oct 28 18:10:58 2023","20","The main experiment item","yes","CogPsy_Assignment_With_Instruction.osexp","/home/matt/Documents/VU/MS/Cognitive_Psychology/project","no","mono","no","18","no","white","no","Student","yes","768","/home/matt/Documents/VU/MS/Cognitive_Psychology/project/code/responses/with_ins/subject-666.csv","real","Melodramatic Milgram","4.0.6","genuine","right","right","NA","right","right","NA","right","774.1219997406006","2111.8569374084473","NA","6627.05397605896","1999.8559951782227","NA","774.1219997406006","NA","NA","2","real_20","1024","2","48000","-16","experiment","666","even","15801.614046096802","NA","8025.037050247192","22808.616161346436","NA","12606.894969940186","5896.587133407593","134397.70102500916","NA","NA","134914.3500328064","26357.88917541504","5999.855995178223","NA","NA","NA","NA","NA","NA","NA","NA","NA","19159.934997558594","NA","134914.83306884766","32985.215187072754","134380.1610469818","NA","26325.963020324707","NA","19156.79097175598","135689.3880367279","NA","15792.59204864502","NA","NA","New experiment","21","69248.80194664001","50","1024"
"43","NA","43","1381","1381","#3d3846","psycho","NA","1","undefined","undefined","1","left","0","0","0","0","0","0","0","50","NA","0","50","0","0","NA","NA","NA","0","NA","NA","NA","NA","NA","0","NA","50","0","50","0","0","0","0","50","0","0","0","NA","Sat Oct 28 18:10:58 2023","20","The main experiment item","yes","CogPsy_Assignment_With_Instruction.osexp","/home/matt/Documents/VU/MS/Cognitive_Psychology/project","no","mono","no","18","no","white","no","Student","yes","768","/home/matt/Documents/VU/MS/Cognitive_Psychology/project/code/responses/with_ins/subject-666.csv","fake","Melodramatic Milgram","4.0.6","BadInk","left","right","NA","right","right","NA","left","1194.8778629302979","2111.8569374084473","NA","6627.05397605896","1999.8559951782227","NA","1194.8778629302979","NA","NA","2","fake_20","1024","2","48000","-16","experiment","666","even","15801.614046096802","NA","8025.037050247192","22808.616161346436","NA","12606.894969940186","5896.587133407593","135847.33700752258","NA","NA","136364.30096626282","26357.88917541504","5999.855995178223","NA","NA","NA","NA","NA","NA","NA","NA","NA","19159.934997558594","NA","136366.0831451416","32985.215187072754","135837.72611618042","NA","26325.963020324707","NA","19156.79097175598","137561.40303611755","NA","15792.59204864502","NA","NA","New experiment","22","70443.67980957031","51","1024"
"44","NA","44","1365","1365","#3d3846","psycho","NA","1","undefined","undefined","1","right","0","0","0","0","0","0","0","51","NA","0","51","0","0","NA","NA","NA","0","NA","NA","NA","NA","NA","0","NA","51","0","51","0","0","0","0","51","0","0","0","NA","Sat Oct 28 18:10:58 2023","50","The main experiment item","yes","CogPsy_Assignment_With_Instruction.osexp","/home/matt/Documents/VU/MS/Cognitive_Psychology/project","no","mono","no","18","no","white","no","Student","yes","768","/home/matt/Documents/VU/MS/Cognitive_Psychology/project/code/responses/with_ins/subject-666.csv","real","Melodramatic Milgram","4.0.6","genuine","right","right","NA","right","right","NA","right","546.0159778594971","2111.8569374084473","NA","6627.05397605896","1999.8559951782227","NA","546.0159778594971","NA","NA","2","real_50","1024","2","48000","-16","experiment","666","even","15801.614046096802","NA","8025.037050247192","22808.616161346436","NA","12606.894969940186","5896.587133407593","137697.89910316467","NA","NA","138214.52403068542","26357.88917541504","5999.855995178223","NA","NA","NA","NA","NA","NA","NA","NA","NA","19159.934997558594","NA","138214.9441242218","32985.215187072754","137680.24516105652","NA","26325.963020324707","NA","19156.79097175598","138761.40308380127","NA","15792.59204864502","NA","NA","New experiment","23","70989.69578742981","52","1024"
"43","NA","43","1354","1354","#3d3846","psycho","NA","0","undefined","undefined","0","left","0","0","0","0","0","0","0","52","NA","0","52","0","0","NA","NA","NA","0","NA","NA","NA","NA","NA","0","NA","52","0","52","0","0","0","0","52","0","0","0","NA","Sat Oct 28 18:10:58 2023","50","The main experiment item","yes","CogPsy_Assignment_With_Instruction.osexp","/home/matt/Documents/VU/MS/Cognitive_Psychology/project","no","mono","no","18","no","white","no","Student","yes","768","/home/matt/Documents/VU/MS/Cognitive_Psychology/project/code/responses/with_ins/subject-666.csv","fake","Melodramatic Milgram","4.0.6","PurpleDenomination","right","right","NA","right","right","NA","right","784.6119403839111","2111.8569374084473","NA","6627.05397605896","1999.8559951782227","NA","784.6119403839111","NA","NA","2","fake_2_50","1024","2","48000","-16","experiment","666","even","15801.614046096802","NA","8025.037050247192","22808.616161346436","NA","12606.894969940186","5896.587133407593","138914.19911384583","NA","NA","139431.40506744385","26357.88917541504","5999.855995178223","NA","NA","NA","NA","NA","NA","NA","NA","NA","19159.934997558594","NA","139432.37709999084","32985.215187072754","138896.21901512146","NA","26325.963020324707","NA","19156.79097175598","140217.42701530457","NA","15792.59204864502","NA","NA","New experiment","23","71774.30772781372","53","1024"
"42","NA","42","1340","1340","#3d3846","psycho","NA","0","undefined","undefined","0","left","0","0","0","0","0","0","0","53","NA","0","53","0","0","NA","NA","NA","0","NA","NA","NA","NA","NA","0","NA","53","0","53","0","0","0","0","53","0","0","0","NA","Sat Oct 28 18:10:58 2023","50","The main experiment item","yes","CogPsy_Assignment_With_Instruction.osexp","/home/matt/Documents/VU/MS/Cognitive_Psychology/project","no","mono","no","18","no","white","no","Student","yes","768","/home/matt/Documents/VU/MS/Cognitive_Psychology/project/code/responses/with_ins/subject-666.csv","fake","Melodramatic Milgram","4.0.6","bottom_left","right","right","NA","right","right","NA","right","599.3211269378662","2111.8569374084473","NA","6627.05397605896","1999.8559951782227","NA","599.3211269378662","NA","NA","2","fake_1_50","1024","2","48000","-16","experiment","666","even","15801.614046096802","NA","8025.037050247192","22808.616161346436","NA","12606.894969940186","5896.587133407593","140348.06609153748","NA","NA","140864.66097831726","26357.88917541504","5999.855995178223","NA","NA","NA","NA","NA","NA","NA","NA","NA","19159.934997558594","NA","140865.62705039978","32985.215187072754","140331.4871788025","NA","26325.963020324707","NA","19156.79097175598","141465.5590057373","NA","15792.59204864502","NA","NA","New experiment","23","72373.62885475159","54","1024"
"42","NA","42","1340","1340","#3d3846","psycho","NA","0","undefined","undefined","0","left","0","0","0","0","0","0","0","53","NA","0","53","0","0","NA","NA","NA","0","NA","NA","NA","NA","NA","0","NA","53","0","53","0","0","0","0","53","0","0","0","NA","Sat Oct 28 18:10:58 2023","50","The main experiment item","yes","CogPsy_Assignment_With_Instruction.osexp","/home/matt/Documents/VU/MS/Cognitive_Psychology/project","no","mono","no","18","no","white","no","thread,europa,number,hologram","yes","768","/home/matt/Documents/VU/MS/Cognitive_Psychology/project/code/responses/with_ins/subject-666.csv","fake","Melodramatic Milgram","4.0.6","bottom_left","thread,europa,number,hologram","right","NA","right","right","NA","right","599.3211269378662","2111.8569374084473","NA","6627.05397605896","1999.8559951782227","NA","599.3211269378662","NA","NA","2","fake_1_50","1024","2","48000","-16","experiment","666","even","15801.614046096802","NA","8025.037050247192","22808.616161346436","NA","12606.894969940186","5896.587133407593","140348.06609153748","NA","NA","140864.66097831726","26357.88917541504","5999.855995178223","NA","NA","NA","175400.377035141","NA","NA","NA","NA","NA","19159.934997558594","NA","140865.62705039978","32985.215187072754","140331.4871788025","NA","26325.963020324707","141541.25499725342","19156.79097175598","141465.5590057373","NA","15792.59204864502","NA","NA","New experiment","23","72373.62885475159","54","1024"
"42","NA","42","1340","1340","#3d3846","psycho","NA","0","undefined","undefined","0","left","0","0","0","0","0","0","0","53","NA","0","53","0","0","NA","NA","NA","0","NA","NA","NA","NA","NA","0","NA","53","0","53","0","0","0","0","53","0","0","0","NA","Sat Oct 28 18:10:58 2023","50","The main experiment item","yes","CogPsy_Assignment_With_Instruction.osexp","/home/matt/Documents/VU/MS/Cognitive_Psychology/project","no","mono","no","18","no","white","no","Ok","yes","768","/home/matt/Documents/VU/MS/Cognitive_Psychology/project/code/responses/with_ins/subject-666.csv","fake","Melodramatic Milgram","4.0.6","bottom_left","Silver strip (security thread);UV hologram;Colors of text;Watermark","right","NA","right","right","NA","right","599.3211269378662","2111.8569374084473","NA","6627.05397605896","1999.8559951782227","NA","599.3211269378662","NA","NA","2","fake_1_50","1024","2","48000","-16","experiment","666","even","15801.614046096802","NA","8025.037050247192","22808.616161346436","NA","12606.894969940186","5896.587133407593","140348.06609153748","NA","NA","140864.66097831726","26357.88917541504","5999.855995178223","NA","NA","NA","175400.377035141","NA","NA","NA","NA","NA","19159.934997558594","NA","140865.62705039978","32985.215187072754","140331.4871788025","NA","26325.963020324707","141541.25499725342","19156.79097175598","141465.5590057373","NA","15792.59204864502","184946.03610038757","NA","New experiment","23","72373.62885475159","54","1024"
