"acc","accept_status","accuracy","average_response_time","avg_rt","background","canvas_backend","checkbox_status","correct","correct_consent_sketchpad","correct_instruction_sketchpad","correct_new_keyboard_response","correct_response","count_age_form","count_checkbox_security_form","count_consent_sketchpad","count_country_logger","count_eurozone_form","count_eurozone_logger","count_experiment","count_fixation_dots","count_getting_started","count_goodbye_sketchpad","count_images_sketchpad","count_information_display_sketchpad","count_instruction_sketchpad","count_new_1_form_base","count_new_1_form_text_input","count_new_1_sketchpad","count_new_2_logger","count_new_4_form_multiple_choice","count_new_form_base","count_new_form_consent","count_new_form_multiple_choice","count_new_form_text_display","count_new_form_text_input","count_new_inline_script","count_new_keyboard_response","count_new_loop","count_new_sequence","count_occupation_form","count_occupation_logger","count_open_security_input_form","count_personal_data_logger","count_response_logger","count_schooling_level_form","count_schooling_logger","count_security_feature_logger","count_welcome","datetime","denomination","description","disable_garbage_collection","experiment_file","experiment_path","font_bold","font_family","font_italic","font_size","font_underline","foreground","form_clicks","form_response","fullscreen","height","logfile","note_type","opensesame_codename","opensesame_version","reason","response","response_consent_sketchpad","response_goodbye_sketchpad","response_information_display_sketchpad","response_instruction_sketchpad","response_new_1_sketchpad","response_new_keyboard_response","response_time","response_time_consent_sketchpad","response_time_goodbye_sketchpad","response_time_information_display_sketchpad","response_time_instruction_sketchpad","response_time_new_1_sketchpad","response_time_new_keyboard_response","response_time_welcome","response_welcome","round_decimals","show","sound_buf_size","sound_channels","sound_freq","sound_sample_size","start","subject_nr","subject_parity","time_age_form","time_checkbox_security_form","time_consent_sketchpad","time_country_logger","time_eurozone_form","time_eurozone_logger","time_experiment","time_fixation_dots","time_getting_started","time_goodbye_sketchpad","time_images_sketchpad","time_information_display_sketchpad","time_instruction_sketchpad","time_new_1_form_base","time_new_1_form_text_input","time_new_1_sketchpad","time_new_2_logger","time_new_4_form_multiple_choice","time_new_form_base","time_new_form_consent","time_new_form_multiple_choice","time_new_form_text_display","time_new_form_text_input","time_new_inline_script","time_new_keyboard_response","time_new_loop","time_new_sequence","time_occupation_form","time_occupation_logger","time_open_security_input_form","time_personal_data_logger","time_response_logger","time_schooling_level_form","time_schooling_logger","time_security_feature_logger","time_welcome","title","total_correct","total_response_time","total_responses","width"
"undefined","NA","undefined","undefined","undefined","#3d3846","psycho","NA","undefined","undefined","undefined","NA","NA","0","0","0","0","0","0","0","NA","NA","0","NA","NA","0","NA","NA","NA","0","NA","NA","NA","NA","NA","0","NA","NA","0","NA","0","0","0","0","NA","0","0","0","NA","Fri Oct 27 18:50:22 2023","NA","The main experiment item","yes","CogPsy_Assignment_With_Instruction.osexp","C:/Users/joaquincr/Desktop","no","mono","no","18","no","white","no","Yes","yes","768","C:/Users/joaquincr/Desktop/subject-54.csv","NA","Melodramatic Milgram","4.0.5","NA","Yes","return","NA","NA","right","NA","NA","8550.110699958168","8550.110699958168","NA","NA","45329.93070001248","NA","NA","NA","NA","2","NA","1024","2","48000","-16","experiment","54","even","NA","NA","72548.71540004387","NA","NA","86282.85560000222","27165.806100005284","NA","NA","NA","NA","NA","27212.94170001056","NA","NA","NA","NA","NA","NA","NA","NA","NA","NA","NA","NA","NA","NA","NA","NA","NA","NA","NA","NA","NA","NA","NA","New experiment","0","0","0","1024"
"undefined","NA","undefined","undefined","undefined","#3d3846","psycho","NA","undefined","undefined","undefined","NA","NA","0","0","0","0","0","0","0","NA","NA","0","NA","NA","0","NA","NA","NA","0","NA","NA","NA","NA","NA","0","NA","NA","0","NA","0","0","0","0","NA","0","0","0","NA","Fri Oct 27 18:50:22 2023","NA","The main experiment item","yes","CogPsy_Assignment_With_Instruction.osexp","C:/Users/joaquincr/Desktop","no","mono","no","18","no","white","no","Masters","yes","768","C:/Users/joaquincr/Desktop/subject-54.csv","NA","Melodramatic Milgram","4.0.5","NA","Masters","return","NA","NA","right","NA","NA","8550.110699958168","8550.110699958168","NA","NA","45329.93070001248","NA","NA","NA","NA","2","NA","1024","2","48000","-16","experiment","54","even","NA","NA","72548.71540004387","NA","NA","86282.85560000222","27165.806100005284","NA","NA","NA","NA","NA","27212.94170001056","NA","NA","NA","NA","NA","NA","NA","NA","NA","NA","NA","NA","NA","NA","NA","NA","NA","NA","NA","NA","89345.25300003588","NA","NA","New experiment","0","0","0","1024"
"undefined","NA","undefined","undefined","undefined","#3d3846","psycho","NA","undefined","undefined","undefined","NA","NA","0","0","0","0","0","0","0","NA","NA","0","NA","NA","0","NA","NA","NA","0","NA","NA","NA","NA","NA","0","NA","NA","0","NA","0","0","0","0","NA","0","0","0","NA","Fri Oct 27 18:50:22 2023","NA","The main experiment item","yes","CogPsy_Assignment_With_Instruction.osexp","C:/Users/joaquincr/Desktop","no","mono","no","18","no","white","no","36","yes","768","C:/Users/joaquincr/Desktop/subject-54.csv","NA","Melodramatic Milgram","4.0.5","NA","36","return","NA","NA","right","NA","NA","8550.110699958168","8550.110699958168","NA","NA","45329.93070001248","NA","NA","NA","NA","2","NA","1024","2","48000","-16","experiment","54","even","89348.85660000145","NA","72548.71540004387","NA","NA","86282.85560000222","27165.806100005284","NA","NA","NA","NA","NA","27212.94170001056","NA","NA","NA","NA","NA","NA","NA","NA","NA","NA","NA","NA","NA","NA","NA","NA","NA","95068.5128000332","NA","NA","89345.25300003588","NA","NA","New experiment","0","0","0","1024"
"undefined","NA","undefined","undefined","undefined","#3d3846","psycho","NA","undefined","undefined","undefined","NA","NA","0","0","0","0","0","0","0","NA","NA","0","NA","NA","0","NA","NA","NA","0","NA","NA","NA","NA","NA","0","NA","NA","0","NA","0","0","0","0","NA","0","0","0","NA","Fri Oct 27 18:50:22 2023","NA","The main experiment item","yes","CogPsy_Assignment_With_Instruction.osexp","C:/Users/joaquincr/Desktop","no","mono","no","18","no","white","no","Italian","yes","768","C:/Users/joaquincr/Desktop/subject-54.csv","NA","Melodramatic Milgram","4.0.5","NA","Italian","return","NA","NA","right","NA","NA","8550.110699958168","8550.110699958168","NA","NA","45329.93070001248","NA","NA","NA","NA","2","NA","1024","2","48000","-16","experiment","54","even","89348.85660000145","NA","72548.71540004387","98819.76230000146","NA","86282.85560000222","27165.806100005284","NA","NA","NA","NA","NA","27212.94170001056","NA","NA","NA","NA","NA","NA","NA","NA","NA","95071.39500009362","NA","NA","NA","NA","NA","NA","NA","95068.5128000332","NA","NA","89345.25300003588","NA","NA","New experiment","0","0","0","1024"
"undefined","NA","undefined","undefined","undefined","#3d3846","psycho","NA","undefined","undefined","undefined","NA","NA","0","0","0","0","0","0","0","NA","NA","0","NA","NA","0","NA","NA","NA","0","NA","NA","NA","NA","NA","0","NA","NA","0","NA","0","0","0","0","NA","0","0","0","NA","Fri Oct 27 18:50:22 2023","NA","The main experiment item","yes","CogPsy_Assignment_With_Instruction.osexp","C:/Users/joaquincr/Desktop","no","mono","no","18","no","white","no","Professional and Technical Occupations","yes","768","C:/Users/joaquincr/Desktop/subject-54.csv","NA","Melodramatic Milgram","4.0.5","NA","Professional and Technical Occupations","return","NA","NA","right","NA","NA","8550.110699958168","8550.110699958168","NA","NA","45329.93070001248","NA","NA","NA","NA","2","NA","1024","2","48000","-16","experiment","54","even","89348.85660000145","NA","72548.71540004387","98819.76230000146","NA","86282.85560000222","27165.806100005284","NA","NA","NA","NA","NA","27212.94170001056","NA","NA","NA","NA","NA","NA","NA","NA","NA","95071.39500009362","NA","NA","NA","NA","NA","107035.93200002797","NA","95068.5128000332","NA","NA","89345.25300003588","NA","NA","New experiment","0","0","0","1024"
"0","NA","0","8722","8722","#3d3846","psycho","NA","0","undefined","undefined","0","right","0","0","0","0","0","0","0","0","NA","0","0","NA","0","NA","NA","NA","0","NA","NA","NA","NA","NA","0","NA","0","0","0","0","0","0","0","0","0","0","0","NA","Fri Oct 27 18:50:22 2023","50","The main experiment item","yes","CogPsy_Assignment_With_Instruction.osexp","C:/Users/joaquincr/Desktop","no","mono","no","18","no","white","no","Professional and Technical Occupations","yes","768","C:/Users/joaquincr/Desktop/subject-54.csv","real","Melodramatic Milgram","4.0.5","genuine","left","return","NA","NA","right","NA","left","8722.31650003232","8550.110699958168","NA","NA","45329.93070001248","NA","8722.31650003232","NA","NA","2","real_20","1024","2","48000","-16","experiment","54","even","89348.85660000145","NA","72548.71540004387","98819.76230000146","NA","86282.85560000222","27165.806100005284","107245.11680006981","NA","NA","107754.03080007527","NA","27212.94170001056","NA","NA","NA","NA","NA","NA","NA","NA","NA","95071.39500009362","NA","107754.31490002666","107038.97320001852","107235.24670000188","NA","107035.93200002797","NA","95068.5128000332","116477.4383000331","NA","89345.25300003588","NA","NA","New experiment","0","8722.31650003232","1","1024"
"0","NA","0","5250","5250","#3d3846","psycho","NA","0","undefined","undefined","0","left","0","0","0","0","0","0","0","1","NA","0","1","NA","0","NA","NA","NA","0","NA","NA","NA","NA","NA","0","NA","1","0","1","0","0","0","0","1","0","0","0","NA","Fri Oct 27 18:50:22 2023","20","The main experiment item","yes","CogPsy_Assignment_With_Instruction.osexp","C:/Users/joaquincr/Desktop","no","mono","no","18","no","white","no","Professional and Technical Occupations","yes","768","C:/Users/joaquincr/Desktop/subject-54.csv","fake","Melodramatic Milgram","4.0.5","NoNumOnThread_BlurryWatermark","right","return","NA","NA","right","NA","right","1778.6731000524014","8550.110699958168","NA","NA","45329.93070001248","NA","1778.6731000524014","NA","NA","2","fake_20","1024","2","48000","-16","experiment","54","even","89348.85660000145","NA","72548.71540004387","98819.76230000146","NA","86282.85560000222","27165.806100005284","116994.91250002757","NA","NA","117502.94800009578","NA","27212.94170001056","NA","NA","NA","NA","NA","NA","NA","NA","NA","95071.39500009362","NA","117503.28810000792","107038.97320001852","116984.50300004333","NA","107035.93200002797","NA","95068.5128000332","119282.48290007468","NA","89345.25300003588","NA","NA","New experiment","0","10500.989600084722","2","1024"
"33","NA","33","5048","5048","#3d3846","psycho","NA","1","undefined","undefined","1","right","0","0","0","0","0","0","0","2","NA","0","2","NA","0","NA","NA","NA","0","NA","NA","NA","NA","NA","0","NA","2","0","2","0","0","0","0","2","0","0","0","NA","Fri Oct 27 18:50:22 2023","20","The main experiment item","yes","CogPsy_Assignment_With_Instruction.osexp","C:/Users/joaquincr/Desktop","no","mono","no","18","no","white","no","Professional and Technical Occupations","yes","768","C:/Users/joaquincr/Desktop/subject-54.csv","real","Melodramatic Milgram","4.0.5","photo","right","return","NA","NA","right","NA","right","4644.5614999393","8550.110699958168","NA","NA","45329.93070001248","NA","4644.5614999393","NA","NA","2","real_20","1024","2","48000","-16","experiment","54","even","89348.85660000145","NA","72548.71540004387","98819.76230000146","NA","86282.85560000222","27165.806100005284","119618.96670004353","NA","NA","120128.40630009305","NA","27212.94170001056","NA","NA","NA","NA","NA","NA","NA","NA","NA","95071.39500009362","NA","120128.72600008268","107038.97320001852","119609.33430003934","NA","107035.93200002797","NA","95068.5128000332","124774.67070007697","NA","89345.25300003588","NA","NA","New experiment","1","15145.551100024022","3","1024"
"25","NA","25","5232","5232","#3d3846","psycho","NA","0","undefined","undefined","0","right","0","0","0","0","0","0","0","3","NA","0","3","NA","0","NA","NA","NA","0","NA","NA","NA","NA","NA","0","NA","3","0","3","0","0","0","0","3","0","0","0","NA","Fri Oct 27 18:50:22 2023","20","The main experiment item","yes","CogPsy_Assignment_With_Instruction.osexp","C:/Users/joaquincr/Desktop","no","mono","no","18","no","white","no","Professional and Technical Occupations","yes","768","C:/Users/joaquincr/Desktop/subject-54.csv","real","Melodramatic Milgram","4.0.5","genuine","left","return","NA","NA","right","NA","left","5785.229700035416","8550.110699958168","NA","NA","45329.93070001248","NA","5785.229700035416","NA","NA","2","real_20","1024","2","48000","-16","experiment","54","even","89348.85660000145","NA","72548.71540004387","98819.76230000146","NA","86282.85560000222","27165.806100005284","125088.0063000368","NA","NA","125594.072900014","NA","27212.94170001056","NA","NA","NA","NA","NA","NA","NA","NA","NA","95071.39500009362","NA","125594.28860002663","107038.97320001852","125078.9162000874","NA","107035.93200002797","NA","95068.5128000332","131380.2392000798","NA","89345.25300003588","NA","NA","New experiment","1","20930.780800059438","4","1024"
"20","NA","20","6197","6197","#3d3846","psycho","NA","0","undefined","undefined","0","right","0","0","0","0","0","0","0","4","NA","0","4","NA","0","NA","NA","NA","0","NA","NA","NA","NA","NA","0","NA","4","0","4","0","0","0","0","4","0","0","0","NA","Fri Oct 27 18:50:22 2023","20","The main experiment item","yes","CogPsy_Assignment_With_Instruction.osexp","C:/Users/joaquincr/Desktop","no","mono","no","18","no","white","no","Professional and Technical Occupations","yes","768","C:/Users/joaquincr/Desktop/subject-54.csv","real","Melodramatic Milgram","4.0.5","genuine","left","return","NA","NA","right","NA","left","10055.190699989907","8550.110699958168","NA","NA","45329.93070001248","NA","10055.190699989907","NA","NA","2","real_20","1024","2","48000","-16","experiment","54","even","89348.85660000145","NA","72548.71540004387","98819.76230000146","NA","86282.85560000222","27165.806100005284","131581.40160003677","NA","NA","132095.22390004713","NA","27212.94170001056","NA","NA","NA","NA","NA","NA","NA","NA","NA","95071.39500009362","NA","132095.658400096","107038.97320001852","131573.18470010068","NA","107035.93200002797","NA","95068.5128000332","142151.4274000656","NA","89345.25300003588","NA","NA","New experiment","1","30985.971500049345","5","1024"
"16","NA","16","5492","5492","#3d3846","psycho","NA","0","undefined","undefined","0","left","0","0","0","0","0","0","0","5","NA","0","5","NA","0","NA","NA","NA","0","NA","NA","NA","NA","NA","0","NA","5","0","5","0","0","0","0","5","0","0","0","NA","Fri Oct 27 18:50:22 2023","20","The main experiment item","yes","CogPsy_Assignment_With_Instruction.osexp","C:/Users/joaquincr/Desktop","no","mono","no","18","no","white","no","Professional and Technical Occupations","yes","768","C:/Users/joaquincr/Desktop/subject-54.csv","fake","Melodramatic Milgram","4.0.5","bottom_left","right","return","NA","NA","right","NA","right","1969.0667000832036","8550.110699958168","NA","NA","45329.93070001248","NA","1969.0667000832036","NA","NA","2","fake_1_20","1024","2","48000","-16","experiment","54","even","89348.85660000145","NA","72548.71540004387","98819.76230000146","NA","86282.85560000222","27165.806100005284","142378.4268000163","NA","NA","142884.40460001584","NA","27212.94170001056","NA","NA","NA","NA","NA","NA","NA","NA","NA","95071.39500009362","NA","142884.5879000146","107038.97320001852","142369.35260007158","NA","107035.93200002797","NA","95068.5128000332","144854.21800008044","NA","89345.25300003588","NA","NA","New experiment","1","32955.03820013255","6","1024"
"14","NA","14","5410","5410","#3d3846","psycho","NA","0","undefined","undefined","0","right","0","0","0","0","0","0","0","6","NA","0","6","NA","0","NA","NA","NA","0","NA","NA","NA","NA","NA","0","NA","6","0","6","0","0","0","0","6","0","0","0","NA","Fri Oct 27 18:50:22 2023","50","The main experiment item","yes","CogPsy_Assignment_With_Instruction.osexp","C:/Users/joaquincr/Desktop","no","mono","no","18","no","white","no","Professional and Technical Occupations","yes","768","C:/Users/joaquincr/Desktop/subject-54.csv","real","Melodramatic Milgram","4.0.5","photo","left","return","NA","NA","right","NA","left","4921.571600018069","8550.110699958168","NA","NA","45329.93070001248","NA","4921.571600018069","NA","NA","2","real_50","1024","2","48000","-16","experiment","54","even","89348.85660000145","NA","72548.71540004387","98819.76230000146","NA","86282.85560000222","27165.806100005284","145154.7396000242","NA","NA","145662.91700000875","NA","27212.94170001056","NA","NA","NA","NA","NA","NA","NA","NA","NA","95071.39500009362","NA","145663.19260001183","107038.97320001852","145144.80200002436","NA","107035.93200002797","NA","95068.5128000332","150585.4092000518","NA","89345.25300003588","NA","NA","New experiment","1","37876.60980015062","7","1024"
"12","NA","12","5345","5345","#3d3846","psycho","NA","0","undefined","undefined","0","left","0","0","0","0","0","0","0","7","NA","0","7","NA","0","NA","NA","NA","0","NA","NA","NA","NA","NA","0","NA","7","0","7","0","0","0","0","7","0","0","0","NA","Fri Oct 27 18:50:22 2023","20","The main experiment item","yes","CogPsy_Assignment_With_Instruction.osexp","C:/Users/joaquincr/Desktop","no","mono","no","18","no","white","no","Professional and Technical Occupations","yes","768","C:/Users/joaquincr/Desktop/subject-54.csv","fake","Melodramatic Milgram","4.0.5","NoNumOnThread_BlurryWatermark","right","return","NA","NA","right","NA","right","4886.195900035091","8550.110699958168","NA","NA","45329.93070001248","NA","4886.195900035091","NA","NA","2","fake_20","1024","2","48000","-16","experiment","54","even","89348.85660000145","NA","72548.71540004387","98819.76230000146","NA","86282.85560000222","27165.806100005284","150826.69470005203","NA","NA","151334.26610007882","NA","27212.94170001056","NA","NA","NA","NA","NA","NA","NA","NA","NA","95071.39500009362","NA","151334.52140004374","107038.97320001852","150818.4789000079","NA","107035.93200002797","NA","95068.5128000332","156221.38910007197","NA","89345.25300003588","NA","NA","New experiment","1","42762.80570018571","8","1024"
"22","NA","22","5296","5296","#3d3846","psycho","NA","1","undefined","undefined","1","left","0","0","0","0","0","0","0","8","NA","0","8","NA","0","NA","NA","NA","0","NA","NA","NA","NA","NA","0","NA","8","0","8","0","0","0","0","8","0","0","0","NA","Fri Oct 27 18:50:22 2023","50","The main experiment item","yes","CogPsy_Assignment_With_Instruction.osexp","C:/Users/joaquincr/Desktop","no","mono","no","18","no","white","no","Professional and Technical Occupations","yes","768","C:/Users/joaquincr/Desktop/subject-54.csv","fake","Melodramatic Milgram","4.0.5","silver_strip","left","return","NA","NA","right","NA","left","4907.067499938421","8550.110699958168","NA","NA","45329.93070001248","NA","4907.067499938421","NA","NA","2","fake_2_50","1024","2","48000","-16","experiment","54","even","89348.85660000145","NA","72548.71540004387","98819.76230000146","NA","86282.85560000222","27165.806100005284","156445.16110001132","NA","NA","156953.4720000811","NA","27212.94170001056","NA","NA","NA","NA","NA","NA","NA","NA","NA","95071.39500009362","NA","156953.82710010745","107038.97320001852","156435.85900007747","NA","107035.93200002797","NA","95068.5128000332","161861.75390006974","NA","89345.25300003588","NA","NA","New experiment","2","47669.87320012413","9","1024"
"20","NA","20","5045","5045","#3d3846","psycho","NA","0","undefined","undefined","0","left","0","0","0","0","0","0","0","9","NA","0","9","NA","0","NA","NA","NA","0","NA","NA","NA","NA","NA","0","NA","9","0","9","0","0","0","0","9","0","0","0","NA","Fri Oct 27 18:50:22 2023","20","The main experiment item","yes","CogPsy_Assignment_With_Instruction.osexp","C:/Users/joaquincr/Desktop","no","mono","no","18","no","white","no","Professional and Technical Occupations","yes","768","C:/Users/joaquincr/Desktop/subject-54.csv","fake","Melodramatic Milgram","4.0.5","DullHologram","right","return","NA","NA","right","NA","right","2783.308199956082","8550.110699958168","NA","NA","45329.93070001248","NA","2783.308199956082","NA","NA","2","fake_20","1024","2","48000","-16","experiment","54","even","89348.85660000145","NA","72548.71540004387","98819.76230000146","NA","86282.85560000222","27165.806100005284","162119.92570001166","NA","NA","162628.92879999708","NA","27212.94170001056","NA","NA","NA","NA","NA","NA","NA","NA","NA","95071.39500009362","NA","162629.24200005364","107038.97320001852","162111.81240004953","NA","107035.93200002797","NA","95068.5128000332","165413.2007000735","NA","89345.25300003588","NA","NA","New experiment","2","50453.18140008021","10","1024"
"27","NA","27","4896","4896","#3d3846","psycho","NA","1","undefined","undefined","1","left","0","0","0","0","0","0","0","10","NA","0","10","NA","0","NA","NA","NA","0","NA","NA","NA","NA","NA","0","NA","10","0","10","0","0","0","0","10","0","0","0","NA","Fri Oct 27 18:50:22 2023","50","The main experiment item","yes","CogPsy_Assignment_With_Instruction.osexp","C:/Users/joaquincr/Desktop","no","mono","no","18","no","white","no","Professional and Technical Occupations","yes","768","C:/Users/joaquincr/Desktop/subject-54.csv","fake","Melodramatic Milgram","4.0.5","silver_strip","left","return","NA","NA","right","NA","left","3411.7696000030264","8550.110699958168","NA","NA","45329.93070001248","NA","3411.7696000030264","NA","NA","2","fake_2_50","1024","2","48000","-16","experiment","54","even","89348.85660000145","NA","72548.71540004387","98819.76230000146","NA","86282.85560000222","27165.806100005284","165623.40880010743","NA","NA","166137.6433999976","NA","27212.94170001056","NA","NA","NA","NA","NA","NA","NA","NA","NA","95071.39500009362","NA","166138.10330000706","107038.97320001852","165615.26730004698","NA","107035.93200002797","NA","95068.5128000332","169550.81240006257","NA","89345.25300003588","NA","NA","New experiment","3","53864.95100008324","11","1024"
"33","NA","33","4744","4744","#3d3846","psycho","NA","1","undefined","undefined","1","right","0","0","0","0","0","0","0","11","NA","0","11","NA","0","NA","NA","NA","0","NA","NA","NA","NA","NA","0","NA","11","0","11","0","0","0","0","11","0","0","0","NA","Fri Oct 27 18:50:22 2023","20","The main experiment item","yes","CogPsy_Assignment_With_Instruction.osexp","C:/Users/joaquincr/Desktop","no","mono","no","18","no","white","no","Professional and Technical Occupations","yes","768","C:/Users/joaquincr/Desktop/subject-54.csv","real","Melodramatic Milgram","4.0.5","photo","right","return","NA","NA","right","NA","right","3070.3790999250486","8550.110699958168","NA","NA","45329.93070001248","NA","3070.3790999250486","NA","NA","2","real_20","1024","2","48000","-16","experiment","54","even","89348.85660000145","NA","72548.71540004387","98819.76230000146","NA","86282.85560000222","27165.806100005284","169811.92170002032","NA","NA","170320.4287000699","NA","27212.94170001056","NA","NA","NA","NA","NA","NA","NA","NA","NA","95071.39500009362","NA","170320.82680007443","107038.97320001852","169799.5999000268","NA","107035.93200002797","NA","95068.5128000332","173393.17460008897","NA","89345.25300003588","NA","NA","New experiment","4","56935.33010000829","12","1024"
"38","NA","38","4735","4735","#3d3846","psycho","NA","1","undefined","undefined","1","right","0","0","0","0","0","0","0","12","NA","0","12","NA","0","NA","NA","NA","0","NA","NA","NA","NA","NA","0","NA","12","0","12","0","0","0","0","12","0","0","0","NA","Fri Oct 27 18:50:22 2023","20","The main experiment item","yes","CogPsy_Assignment_With_Instruction.osexp","C:/Users/joaquincr/Desktop","no","mono","no","18","no","white","no","Professional and Technical Occupations","yes","768","C:/Users/joaquincr/Desktop/subject-54.csv","real","Melodramatic Milgram","4.0.5","photo","right","return","NA","NA","right","NA","right","4623.446399928071","8550.110699958168","NA","NA","45329.93070001248","NA","4623.446399928071","NA","NA","2","real_20","1024","2","48000","-16","experiment","54","even","89348.85660000145","NA","72548.71540004387","98819.76230000146","NA","86282.85560000222","27165.806100005284","173773.1313999975","NA","NA","174281.3830000814","NA","27212.94170001056","NA","NA","NA","NA","NA","NA","NA","NA","NA","95071.39500009362","NA","174281.69160010293","107038.97320001852","173759.49020008557","NA","107035.93200002797","NA","95068.5128000332","178905.85820004344","NA","89345.25300003588","NA","NA","New experiment","5","61558.77649993636","13","1024"
"35","NA","35","5324","5324","#3d3846","psycho","NA","0","undefined","undefined","0","left","0","0","0","0","0","0","0","13","NA","0","13","NA","0","NA","NA","NA","0","NA","NA","NA","NA","NA","0","NA","13","0","13","0","0","0","0","13","0","0","0","NA","Fri Oct 27 18:50:22 2023","50","The main experiment item","yes","CogPsy_Assignment_With_Instruction.osexp","C:/Users/joaquincr/Desktop","no","mono","no","18","no","white","no","Professional and Technical Occupations","yes","768","C:/Users/joaquincr/Desktop/subject-54.csv","fake","Melodramatic Milgram","4.0.5","PurpleDenomination2","right","return","NA","NA","right","NA","right","12980.15590000432","8550.110699958168","NA","NA","45329.93070001248","NA","12980.15590000432","NA","NA","2","fake_2_50","1024","2","48000","-16","experiment","54","even","89348.85660000145","NA","72548.71540004387","98819.76230000146","NA","86282.85560000222","27165.806100005284","179163.12470007688","NA","NA","179672.33960004523","NA","27212.94170001056","NA","NA","NA","NA","NA","NA","NA","NA","NA","95071.39500009362","NA","179672.75580007117","107038.97320001852","179154.56729999278","NA","107035.93200002797","NA","95068.5128000332","192653.9642000571","NA","89345.25300003588","NA","NA","New experiment","5","74538.93239994068","14","1024"
"33","NA","33","6037","6037","#3d3846","psycho","NA","0","undefined","undefined","0","right","0","0","0","0","0","0","0","14","NA","0","14","NA","0","NA","NA","NA","0","NA","NA","NA","NA","NA","0","NA","14","0","14","0","0","0","0","14","0","0","0","NA","Fri Oct 27 18:50:22 2023","20","The main experiment item","yes","CogPsy_Assignment_With_Instruction.osexp","C:/Users/joaquincr/Desktop","no","mono","no","18","no","white","no","Professional and Technical Occupations","yes","768","C:/Users/joaquincr/Desktop/subject-54.csv","real","Melodramatic Milgram","4.0.5","genuine","left","return","NA","NA","right","NA","left","16025.54879989475","8550.110699958168","NA","NA","45329.93070001248","NA","16025.54879989475","NA","NA","2","real_20","1024","2","48000","-16","experiment","54","even","89348.85660000145","NA","72548.71540004387","98819.76230000146","NA","86282.85560000222","27165.806100005284","192851.28280008212","NA","NA","193359.63640001137","NA","27212.94170001056","NA","NA","NA","NA","NA","NA","NA","NA","NA","95071.39500009362","NA","193359.89260009956","107038.97320001852","192840.91030003037","NA","107035.93200002797","NA","95068.5128000332","209386.10340002924","NA","89345.25300003588","NA","NA","New experiment","5","90564.48119983543","15","1024"
"37","NA","37","6227","6227","#3d3846","psycho","NA","1","undefined","undefined","1","left","0","0","0","0","0","0","0","15","NA","0","15","NA","0","NA","NA","NA","0","NA","NA","NA","NA","NA","0","NA","15","0","15","0","0","0","0","15","0","0","0","NA","Fri Oct 27 18:50:22 2023","50","The main experiment item","yes","CogPsy_Assignment_With_Instruction.osexp","C:/Users/joaquincr/Desktop","no","mono","no","18","no","white","no","Professional and Technical Occupations","yes","768","C:/Users/joaquincr/Desktop/subject-54.csv","fake","Melodramatic Milgram","4.0.5","NoNumOnThread_BlurryWatermark","left","return","NA","NA","right","NA","left","9077.666600001976","8550.110699958168","NA","NA","45329.93070001248","NA","9077.666600001976","NA","NA","2","fake_2_50","1024","2","48000","-16","experiment","54","even","89348.85660000145","NA","72548.71540004387","98819.76230000146","NA","86282.85560000222","27165.806100005284","209667.43230004795","NA","NA","210177.8578000376","NA","27212.94170001056","NA","NA","NA","NA","NA","NA","NA","NA","NA","95071.39500009362","NA","210178.21360006928","107038.97320001852","209658.56990008615","NA","107035.93200002797","NA","95068.5128000332","219256.78180006798","NA","89345.25300003588","NA","NA","New experiment","6","99642.1477998374","16","1024"
"35","NA","35","6071","6071","#3d3846","psycho","NA","0","undefined","undefined","0","left","0","0","0","0","0","0","0","16","NA","0","16","NA","0","NA","NA","NA","0","NA","NA","NA","NA","NA","0","NA","16","0","16","0","0","0","0","16","0","0","0","NA","Fri Oct 27 18:50:22 2023","20","The main experiment item","yes","CogPsy_Assignment_With_Instruction.osexp","C:/Users/joaquincr/Desktop","no","mono","no","18","no","white","no","Professional and Technical Occupations","yes","768","C:/Users/joaquincr/Desktop/subject-54.csv","fake","Melodramatic Milgram","4.0.5","BrownDenomination","right","return","NA","NA","right","NA","right","3573.6227999441326","8550.110699958168","NA","NA","45329.93070001248","NA","3573.6227999441326","NA","NA","2","fake_20","1024","2","48000","-16","experiment","54","even","89348.85660000145","NA","72548.71540004387","98819.76230000146","NA","86282.85560000222","27165.806100005284","219519.30680009536","NA","NA","220029.36500008218","NA","27212.94170001056","NA","NA","NA","NA","NA","NA","NA","NA","NA","95071.39500009362","NA","220029.70020007342","107038.97320001852","219510.46700007282","NA","107035.93200002797","NA","95068.5128000332","223604.1076000547","NA","89345.25300003588","NA","NA","New experiment","6","103215.77059978154","17","1024"
"33","NA","33","5983","5983","#3d3846","psycho","NA","0","undefined","undefined","0","left","0","0","0","0","0","0","0","17","NA","0","17","NA","0","NA","NA","NA","0","NA","NA","NA","NA","NA","0","NA","17","0","17","0","0","0","0","17","0","0","0","NA","Fri Oct 27 18:50:22 2023","20","The main experiment item","yes","CogPsy_Assignment_With_Instruction.osexp","C:/Users/joaquincr/Desktop","no","mono","no","18","no","white","no","Professional and Technical Occupations","yes","768","C:/Users/joaquincr/Desktop/subject-54.csv","fake","Melodramatic Milgram","4.0.5","DullHologram","right","return","NA","NA","right","NA","right","4480.458299978636","8550.110699958168","NA","NA","45329.93070001248","NA","4480.458299978636","NA","NA","2","fake_20","1024","2","48000","-16","experiment","54","even","89348.85660000145","NA","72548.71540004387","98819.76230000146","NA","86282.85560000222","27165.806100005284","223842.0184000861","NA","NA","224348.03700004704","NA","27212.94170001056","NA","NA","NA","NA","NA","NA","NA","NA","NA","95071.39500009362","NA","224348.23540004436","107038.97320001852","223830.21830010694","NA","107035.93200002797","NA","95068.5128000332","228829.37950000633","NA","89345.25300003588","NA","NA","New experiment","6","107696.22889976017","18","1024"
"31","NA","31","5770","5770","#3d3846","psycho","NA","0","undefined","undefined","0","right","0","0","0","0","0","0","0","18","NA","0","18","NA","0","NA","NA","NA","0","NA","NA","NA","NA","NA","0","NA","18","0","18","0","0","0","0","18","0","0","0","NA","Fri Oct 27 18:50:22 2023","50","The main experiment item","yes","CogPsy_Assignment_With_Instruction.osexp","C:/Users/joaquincr/Desktop","no","mono","no","18","no","white","no","Professional and Technical Occupations","yes","768","C:/Users/joaquincr/Desktop/subject-54.csv","real","Melodramatic Milgram","4.0.5","photo_2","left","return","NA","NA","right","NA","left","1948.4905999852344","8550.110699958168","NA","NA","45329.93070001248","NA","1948.4905999852344","NA","NA","2","real_50","1024","2","48000","-16","experiment","54","even","89348.85660000145","NA","72548.71540004387","98819.76230000146","NA","86282.85560000222","27165.806100005284","229022.70550001413","NA","NA","229529.7427000478","NA","27212.94170001056","NA","NA","NA","NA","NA","NA","NA","NA","NA","95071.39500009362","NA","229530.03100003116","107038.97320001852","229015.52190002985","NA","107035.93200002797","NA","95068.5128000332","231479.4217000017","NA","89345.25300003588","NA","NA","New experiment","6","109644.7194997454","19","1024"
"35","NA","35","5814","5814","#3d3846","psycho","NA","1","undefined","undefined","1","left","0","0","0","0","0","0","0","19","NA","0","19","NA","0","NA","NA","NA","0","NA","NA","NA","NA","NA","0","NA","19","0","19","0","0","0","0","19","0","0","0","NA","Fri Oct 27 18:50:22 2023","50","The main experiment item","yes","CogPsy_Assignment_With_Instruction.osexp","C:/Users/joaquincr/Desktop","no","mono","no","18","no","white","no","Professional and Technical Occupations","yes","768","C:/Users/joaquincr/Desktop/subject-54.csv","fake","Melodramatic Milgram","4.0.5","BadInk","left","return","NA","NA","right","NA","left","6642.270499956794","8550.110699958168","NA","NA","45329.93070001248","NA","6642.270499956794","NA","NA","2","fake_2_50","1024","2","48000","-16","experiment","54","even","89348.85660000145","NA","72548.71540004387","98819.76230000146","NA","86282.85560000222","27165.806100005284","231723.475900013","NA","NA","232232.27510007564","NA","27212.94170001056","NA","NA","NA","NA","NA","NA","NA","NA","NA","95071.39500009362","NA","232232.66010009684","107038.97320001852","231715.22300003562","NA","107035.93200002797","NA","95068.5128000332","238875.9467001073","NA","89345.25300003588","NA","NA","New experiment","7","116286.9899997022","20","1024"
"38","NA","38","5683","5683","#3d3846","psycho","NA","1","undefined","undefined","1","left","0","0","0","0","0","0","0","20","NA","0","20","NA","0","NA","NA","NA","0","NA","NA","NA","NA","NA","0","NA","20","0","20","0","0","0","0","20","0","0","0","NA","Fri Oct 27 18:50:22 2023","50","The main experiment item","yes","CogPsy_Assignment_With_Instruction.osexp","C:/Users/joaquincr/Desktop","no","mono","no","18","no","white","no","Professional and Technical Occupations","yes","768","C:/Users/joaquincr/Desktop/subject-54.csv","fake","Melodramatic Milgram","4.0.5","BadInk","left","return","NA","NA","right","NA","left","3068.1589999003336","8550.110699958168","NA","NA","45329.93070001248","NA","3068.1589999003336","NA","NA","2","fake_2_50","1024","2","48000","-16","experiment","54","even","89348.85660000145","NA","72548.71540004387","98819.76230000146","NA","86282.85560000222","27165.806100005284","239105.02260003705","NA","NA","239613.94790001214","NA","27212.94170001056","NA","NA","NA","NA","NA","NA","NA","NA","NA","95071.39500009362","NA","239614.3268001033","107038.97320001852","239096.2567999959","NA","107035.93200002797","NA","95068.5128000332","242683.22230002377","NA","89345.25300003588","NA","NA","New experiment","8","119355.14899960253","21","1024"
"40","NA","40","5533","5533","#3d3846","psycho","NA","1","undefined","undefined","1","left","0","0","0","0","0","0","0","21","NA","0","21","NA","0","NA","NA","NA","0","NA","NA","NA","NA","NA","0","NA","21","0","21","0","0","0","0","21","0","0","0","NA","Fri Oct 27 18:50:22 2023","50","The main experiment item","yes","CogPsy_Assignment_With_Instruction.osexp","C:/Users/joaquincr/Desktop","no","mono","no","18","no","white","no","Professional and Technical Occupations","yes","768","C:/Users/joaquincr/Desktop/subject-54.csv","fake","Melodramatic Milgram","4.0.5","PurpleDenomination3","left","return","NA","NA","right","NA","left","2380.911600077525","8550.110699958168","NA","NA","45329.93070001248","NA","2380.911600077525","NA","NA","2","fake_2_50","1024","2","48000","-16","experiment","54","even","89348.85660000145","NA","72548.71540004387","98819.76230000146","NA","86282.85560000222","27165.806100005284","242924.13090006448","NA","NA","243432.2386001004","NA","27212.94170001056","NA","NA","NA","NA","NA","NA","NA","NA","NA","95071.39500009362","NA","243432.53510002978","107038.97320001852","242914.66030001175","NA","107035.93200002797","NA","95068.5128000332","245814.78650006466","NA","89345.25300003588","NA","NA","New experiment","9","121736.06059968006","22","1024"
"43","NA","43","5348","5348","#3d3846","psycho","NA","1","undefined","undefined","1","right","0","0","0","0","0","0","0","22","NA","0","22","NA","0","NA","NA","NA","0","NA","NA","NA","NA","NA","0","NA","22","0","22","0","0","0","0","22","0","0","0","NA","Fri Oct 27 18:50:22 2023","50","The main experiment item","yes","CogPsy_Assignment_With_Instruction.osexp","C:/Users/joaquincr/Desktop","no","mono","no","18","no","white","no","Professional and Technical Occupations","yes","768","C:/Users/joaquincr/Desktop/subject-54.csv","real","Melodramatic Milgram","4.0.5","photo_2","right","return","NA","NA","right","NA","right","1280.5139999836683","8550.110699958168","NA","NA","45329.93070001248","NA","1280.5139999836683","NA","NA","2","real_50","1024","2","48000","-16","experiment","54","even","89348.85660000145","NA","72548.71540004387","98819.76230000146","NA","86282.85560000222","27165.806100005284","246037.1404000325","NA","NA","246544.99040008523","NA","27212.94170001056","NA","NA","NA","NA","NA","NA","NA","NA","NA","95071.39500009362","NA","246545.28350010514","107038.97320001852","246029.6682000626","NA","107035.93200002797","NA","95068.5128000332","247826.5944001032","NA","89345.25300003588","NA","NA","New experiment","10","123016.57459966373","23","1024"
"45","NA","45","5282","5282","#3d3846","psycho","NA","1","undefined","undefined","1","left","0","0","0","0","0","0","0","23","NA","0","23","NA","0","NA","NA","NA","0","NA","NA","NA","NA","NA","0","NA","23","0","23","0","0","0","0","23","0","0","0","NA","Fri Oct 27 18:50:22 2023","20","The main experiment item","yes","CogPsy_Assignment_With_Instruction.osexp","C:/Users/joaquincr/Desktop","no","mono","no","18","no","white","no","Professional and Technical Occupations","yes","768","C:/Users/joaquincr/Desktop/subject-54.csv","fake","Melodramatic Milgram","4.0.5","BadInk","left","return","NA","NA","right","NA","left","3754.213400068693","8550.110699958168","NA","NA","45329.93070001248","NA","3754.213400068693","NA","NA","2","fake_20","1024","2","48000","-16","experiment","54","even","89348.85660000145","NA","72548.71540004387","98819.76230000146","NA","86282.85560000222","27165.806100005284","248095.247499994","NA","NA","248603.10609999578","NA","27212.94170001056","NA","NA","NA","NA","NA","NA","NA","NA","NA","95071.39500009362","NA","248603.503499995","107038.97320001852","248083.7435000576","NA","107035.93200002797","NA","95068.5128000332","252358.61160000786","NA","89345.25300003588","NA","NA","New experiment","11","126770.78799973242","24","1024"
"48","NA","48","5152","5152","#3d3846","psycho","NA","1","undefined","undefined","1","left","0","0","0","0","0","0","0","24","NA","0","24","NA","0","NA","NA","NA","0","NA","NA","NA","NA","NA","0","NA","24","0","24","0","0","0","0","24","0","0","0","NA","Fri Oct 27 18:50:22 2023","50","The main experiment item","yes","CogPsy_Assignment_With_Instruction.osexp","C:/Users/joaquincr/Desktop","no","mono","no","18","no","white","no","Professional and Technical Occupations","yes","768","C:/Users/joaquincr/Desktop/subject-54.csv","fake","Melodramatic Milgram","4.0.5","GreyDenomination","left","return","NA","NA","right","NA","left","2038.9119000174105","8550.110699958168","NA","NA","45329.93070001248","NA","2038.9119000174105","NA","NA","2","fake_2_50","1024","2","48000","-16","experiment","54","even","89348.85660000145","NA","72548.71540004387","98819.76230000146","NA","86282.85560000222","27165.806100005284","252620.93289999757","NA","NA","253127.2877000738","NA","27212.94170001056","NA","NA","NA","NA","NA","NA","NA","NA","NA","95071.39500009362","NA","253127.5159000652","107038.97320001852","252612.0761000784","NA","107035.93200002797","NA","95068.5128000332","255167.1949001029","NA","89345.25300003588","NA","NA","New experiment","12","128809.69989974983","25","1024"
"50","NA","50","5026","5026","#3d3846","psycho","NA","1","undefined","undefined","1","right","0","0","0","0","0","0","0","25","NA","0","25","NA","0","NA","NA","NA","0","NA","NA","NA","NA","NA","0","NA","25","0","25","0","0","0","0","25","0","0","0","NA","Fri Oct 27 18:50:22 2023","50","The main experiment item","yes","CogPsy_Assignment_With_Instruction.osexp","C:/Users/joaquincr/Desktop","no","mono","no","18","no","white","no","Professional and Technical Occupations","yes","768","C:/Users/joaquincr/Desktop/subject-54.csv","real","Melodramatic Milgram","4.0.5","photo_2","right","return","NA","NA","right","NA","right","1874.291199957952","8550.110699958168","NA","NA","45329.93070001248","NA","1874.291199957952","NA","NA","2","real_50","1024","2","48000","-16","experiment","54","even","89348.85660000145","NA","72548.71540004387","98819.76230000146","NA","86282.85560000222","27165.806100005284","255395.35520004574","NA","NA","255901.6333000036","NA","27212.94170001056","NA","NA","NA","NA","NA","NA","NA","NA","NA","95071.39500009362","NA","255901.8910001032","107038.97320001852","255385.8968000859","NA","107035.93200002797","NA","95068.5128000332","257776.75970003475","NA","89345.25300003588","NA","NA","New experiment","13","130683.99109970778","26","1024"
"51","NA","51","4975","4975","#3d3846","psycho","NA","1","undefined","undefined","1","right","0","0","0","0","0","0","0","26","NA","0","26","NA","0","NA","NA","NA","0","NA","NA","NA","NA","NA","0","NA","26","0","26","0","0","0","0","26","0","0","0","NA","Fri Oct 27 18:50:22 2023","50","The main experiment item","yes","CogPsy_Assignment_With_Instruction.osexp","C:/Users/joaquincr/Desktop","no","mono","no","18","no","white","no","Professional and Technical Occupations","yes","768","C:/Users/joaquincr/Desktop/subject-54.csv","real","Melodramatic Milgram","4.0.5","photo_2","right","return","NA","NA","right","NA","right","3651.9718000199646","8550.110699958168","NA","NA","45329.93070001248","NA","3651.9718000199646","NA","NA","2","real_50","1024","2","48000","-16","experiment","54","even","89348.85660000145","NA","72548.71540004387","98819.76230000146","NA","86282.85560000222","27165.806100005284","257974.95639999397","NA","NA","258483.5846000351","NA","27212.94170001056","NA","NA","NA","NA","NA","NA","NA","NA","NA","95071.39500009362","NA","258483.9114000788","107038.97320001852","257966.90850006416","NA","107035.93200002797","NA","95068.5128000332","262137.16550008394","NA","89345.25300003588","NA","NA","New experiment","14","134335.96289972775","27","1024"
"50","NA","50","4854","4854","#3d3846","psycho","NA","0","undefined","undefined","0","left","0","0","0","0","0","0","0","27","NA","0","27","NA","0","NA","NA","NA","0","NA","NA","NA","NA","NA","0","NA","27","0","27","0","0","0","0","27","0","0","0","NA","Fri Oct 27 18:50:22 2023","50","The main experiment item","yes","CogPsy_Assignment_With_Instruction.osexp","C:/Users/joaquincr/Desktop","no","mono","no","18","no","white","no","Professional and Technical Occupations","yes","768","C:/Users/joaquincr/Desktop/subject-54.csv","fake","Melodramatic Milgram","4.0.5","PurpleDenomination","right","return","NA","NA","right","NA","right","1594.3658999167383","8550.110699958168","NA","NA","45329.93070001248","NA","1594.3658999167383","NA","NA","2","fake_2_50","1024","2","48000","-16","experiment","54","even","89348.85660000145","NA","72548.71540004387","98819.76230000146","NA","86282.85560000222","27165.806100005284","262351.04340000544","NA","NA","262859.31260010693","NA","27212.94170001056","NA","NA","NA","NA","NA","NA","NA","NA","NA","95071.39500009362","NA","262859.63080008514","107038.97320001852","262341.6738000233","NA","107035.93200002797","NA","95068.5128000332","264454.7708000755","NA","89345.25300003588","NA","NA","New experiment","14","135930.32879964449","28","1024"
"51","NA","51","4826","4826","#3d3846","psycho","NA","1","undefined","undefined","1","left","0","0","0","0","0","0","0","28","NA","0","28","NA","0","NA","NA","NA","0","NA","NA","NA","NA","NA","0","NA","28","0","28","0","0","0","0","28","0","0","0","NA","Fri Oct 27 18:50:22 2023","20","The main experiment item","yes","CogPsy_Assignment_With_Instruction.osexp","C:/Users/joaquincr/Desktop","no","mono","no","18","no","white","no","Professional and Technical Occupations","yes","768","C:/Users/joaquincr/Desktop/subject-54.csv","fake","Melodramatic Milgram","4.0.5","PurpleDenomination","left","return","NA","NA","right","NA","left","4046.944300062023","8550.110699958168","NA","NA","45329.93070001248","NA","4046.944300062023","NA","NA","2","fake_20","1024","2","48000","-16","experiment","54","even","89348.85660000145","NA","72548.71540004387","98819.76230000146","NA","86282.85560000222","27165.806100005284","264666.9700000202","NA","NA","265175.32110004686","NA","27212.94170001056","NA","NA","NA","NA","NA","NA","NA","NA","NA","95071.39500009362","NA","265175.65620003734","107038.97320001852","264658.1768000033","NA","107035.93200002797","NA","95068.5128000332","269223.52680005133","NA","89345.25300003588","NA","NA","New experiment","15","139977.2730997065","29","1024"
"50","NA","50","4769","4769","#3d3846","psycho","NA","0","undefined","undefined","0","right","0","0","0","0","0","0","0","29","NA","0","29","NA","0","NA","NA","NA","0","NA","NA","NA","NA","NA","0","NA","29","0","29","0","0","0","0","29","0","0","0","NA","Fri Oct 27 18:50:22 2023","50","The main experiment item","yes","CogPsy_Assignment_With_Instruction.osexp","C:/Users/joaquincr/Desktop","no","mono","no","18","no","white","no","Professional and Technical Occupations","yes","768","C:/Users/joaquincr/Desktop/subject-54.csv","real","Melodramatic Milgram","4.0.5","photo","left","return","NA","NA","right","NA","left","3105.164899956435","8550.110699958168","NA","NA","45329.93070001248","NA","3105.164899956435","NA","NA","2","real_50","1024","2","48000","-16","experiment","54","even","89348.85660000145","NA","72548.71540004387","98819.76230000146","NA","86282.85560000222","27165.806100005284","269481.35840008035","NA","NA","269989.39700005576","NA","27212.94170001056","NA","NA","NA","NA","NA","NA","NA","NA","NA","95071.39500009362","NA","269989.72020007204","107038.97320001852","269472.4604000803","NA","107035.93200002797","NA","95068.5128000332","273095.9190001013","NA","89345.25300003588","NA","NA","New experiment","15","143082.43799966294","30","1024"
"51","NA","51","4678","4678","#3d3846","psycho","NA","1","undefined","undefined","1","left","0","0","0","0","0","0","0","30","NA","0","30","NA","0","NA","NA","NA","0","NA","NA","NA","NA","NA","0","NA","30","0","30","0","0","0","0","30","0","0","0","NA","Fri Oct 27 18:50:22 2023","20","The main experiment item","yes","CogPsy_Assignment_With_Instruction.osexp","C:/Users/joaquincr/Desktop","no","mono","no","18","no","white","no","Professional and Technical Occupations","yes","768","C:/Users/joaquincr/Desktop/subject-54.csv","fake","Melodramatic Milgram","4.0.5","BadInk","left","return","NA","NA","right","NA","left","1958.5021000821143","8550.110699958168","NA","NA","45329.93070001248","NA","1958.5021000821143","NA","NA","2","fake_20","1024","2","48000","-16","experiment","54","even","89348.85660000145","NA","72548.71540004387","98819.76230000146","NA","86282.85560000222","27165.806100005284","273339.743400109","NA","NA","273850.4132000962","NA","27212.94170001056","NA","NA","NA","NA","NA","NA","NA","NA","NA","95071.39500009362","NA","273850.75330000836","107038.97320001852","273328.3018000657","NA","107035.93200002797","NA","95068.5128000332","275810.27300003916","NA","89345.25300003588","NA","NA","New experiment","16","145040.94009974506","31","1024"
"53","NA","53","4615","4615","#3d3846","psycho","NA","1","undefined","undefined","1","left","0","0","0","0","0","0","0","31","NA","0","31","NA","0","NA","NA","NA","0","NA","NA","NA","NA","NA","0","NA","31","0","31","0","0","0","0","31","0","0","0","NA","Fri Oct 27 18:50:22 2023","50","The main experiment item","yes","CogPsy_Assignment_With_Instruction.osexp","C:/Users/joaquincr/Desktop","no","mono","no","18","no","white","no","Professional and Technical Occupations","yes","768","C:/Users/joaquincr/Desktop/subject-54.csv","fake","Melodramatic Milgram","4.0.5","bottom_left","left","return","NA","NA","right","NA","left","2661.8155000032857","8550.110699958168","NA","NA","45329.93070001248","NA","2661.8155000032857","NA","NA","2","fake_1_50","1024","2","48000","-16","experiment","54","even","89348.85660000145","NA","72548.71540004387","98819.76230000146","NA","86282.85560000222","27165.806100005284","276029.11020000465","NA","NA","276536.85000003316","NA","27212.94170001056","NA","NA","NA","NA","NA","NA","NA","NA","NA","95071.39500009362","NA","276537.10100008175","107038.97320001852","276018.12290004455","NA","107035.93200002797","NA","95068.5128000332","279200.1236000797","NA","89345.25300003588","NA","NA","New experiment","17","147702.75559974834","32","1024"
"54","NA","54","4653","4653","#3d3846","psycho","NA","1","undefined","undefined","1","left","0","0","0","0","0","0","0","32","NA","0","32","NA","0","NA","NA","NA","0","NA","NA","NA","NA","NA","0","NA","32","0","32","0","0","0","0","32","0","0","0","NA","Fri Oct 27 18:50:22 2023","20","The main experiment item","yes","CogPsy_Assignment_With_Instruction.osexp","C:/Users/joaquincr/Desktop","no","mono","no","18","no","white","no","Professional and Technical Occupations","yes","768","C:/Users/joaquincr/Desktop/subject-54.csv","fake","Melodramatic Milgram","4.0.5","DullHologram2","left","return","NA","NA","right","NA","left","5846.268599969335","8550.110699958168","NA","NA","45329.93070001248","NA","5846.268599969335","NA","NA","2","fake_20","1024","2","48000","-16","experiment","54","even","89348.85660000145","NA","72548.71540004387","98819.76230000146","NA","86282.85560000222","27165.806100005284","279532.4568999931","NA","NA","280040.2252000058","NA","27212.94170001056","NA","NA","NA","NA","NA","NA","NA","NA","NA","95071.39500009362","NA","280040.5536000617","107038.97320001852","279522.82700000796","NA","107035.93200002797","NA","95068.5128000332","285887.61770003475","NA","89345.25300003588","NA","NA","New experiment","18","153549.02419971768","33","1024"
"55","NA","55","4559","4559","#3d3846","psycho","NA","1","undefined","undefined","1","left","0","0","0","0","0","0","0","33","NA","0","33","NA","0","NA","NA","NA","0","NA","NA","NA","NA","NA","0","NA","33","0","33","0","0","0","0","33","0","0","0","NA","Fri Oct 27 18:50:22 2023","50","The main experiment item","yes","CogPsy_Assignment_With_Instruction.osexp","C:/Users/joaquincr/Desktop","no","mono","no","18","no","white","no","Professional and Technical Occupations","yes","768","C:/Users/joaquincr/Desktop/subject-54.csv","fake","Melodramatic Milgram","4.0.5","GreyDenomination","left","return","NA","NA","right","NA","left","1480.7590999407694","8550.110699958168","NA","NA","45329.93070001248","NA","1480.7590999407694","NA","NA","2","fake_2_50","1024","2","48000","-16","experiment","54","even","89348.85660000145","NA","72548.71540004387","98819.76230000146","NA","86282.85560000222","27165.806100005284","286156.16680006497","NA","NA","286663.62620005384","NA","27212.94170001056","NA","NA","NA","NA","NA","NA","NA","NA","NA","95071.39500009362","NA","286663.9531000983","107038.97320001852","286147.8844000958","NA","107035.93200002797","NA","95068.5128000332","288146.1181000341","NA","89345.25300003588","NA","NA","New experiment","19","155029.78329965845","34","1024"
"57","NA","57","4505","4505","#3d3846","psycho","NA","1","undefined","undefined","1","left","0","0","0","0","0","0","0","34","NA","0","34","NA","0","NA","NA","NA","0","NA","NA","NA","NA","NA","0","NA","34","0","34","0","0","0","0","34","0","0","0","NA","Fri Oct 27 18:50:22 2023","20","The main experiment item","yes","CogPsy_Assignment_With_Instruction.osexp","C:/Users/joaquincr/Desktop","no","mono","no","18","no","white","no","Professional and Technical Occupations","yes","768","C:/Users/joaquincr/Desktop/subject-54.csv","fake","Melodramatic Milgram","4.0.5","bottom_left","left","return","NA","NA","right","NA","left","2654.978199978359","8550.110699958168","NA","NA","45329.93070001248","NA","2654.978199978359","NA","NA","2","fake_1_20","1024","2","48000","-16","experiment","54","even","89348.85660000145","NA","72548.71540004387","98819.76230000146","NA","86282.85560000222","27165.806100005284","288494.6694000391","NA","NA","289003.62460000906","NA","27212.94170001056","NA","NA","NA","NA","NA","NA","NA","NA","NA","95071.39500009362","NA","289003.9171000244","107038.97320001852","288485.4513000464","NA","107035.93200002797","NA","95068.5128000332","291659.9284000695","NA","89345.25300003588","NA","NA","New experiment","20","157684.7614996368","35","1024"
"55","NA","55","4417","4417","#3d3846","psycho","NA","0","undefined","undefined","0","right","0","0","0","0","0","0","0","35","NA","0","35","NA","0","NA","NA","NA","0","NA","NA","NA","NA","NA","0","NA","35","0","35","0","0","0","0","35","0","0","0","NA","Fri Oct 27 18:50:22 2023","50","The main experiment item","yes","CogPsy_Assignment_With_Instruction.osexp","C:/Users/joaquincr/Desktop","no","mono","no","18","no","white","no","Professional and Technical Occupations","yes","768","C:/Users/joaquincr/Desktop/subject-54.csv","real","Melodramatic Milgram","4.0.5","genuine","left","return","NA","NA","right","NA","left","1362.1885000029579","8550.110699958168","NA","NA","45329.93070001248","NA","1362.1885000029579","NA","NA","2","real_20","1024","2","48000","-16","experiment","54","even","89348.85660000145","NA","72548.71540004387","98819.76230000146","NA","86282.85560000222","27165.806100005284","291897.78360002674","NA","NA","292406.5675000893","NA","27212.94170001056","NA","NA","NA","NA","NA","NA","NA","NA","NA","95071.39500009362","NA","292406.8793000188","107038.97320001852","291889.73490009084","NA","107035.93200002797","NA","95068.5128000332","293769.70360009","NA","89345.25300003588","NA","NA","New experiment","20","159046.94999963976","36","1024"
"54","NA","54","4364","4364","#3d3846","psycho","NA","0","undefined","undefined","0","left","0","0","0","0","0","0","0","36","NA","0","36","NA","0","NA","NA","NA","0","NA","NA","NA","NA","NA","0","NA","36","0","36","0","0","0","0","36","0","0","0","NA","Fri Oct 27 18:50:22 2023","50","The main experiment item","yes","CogPsy_Assignment_With_Instruction.osexp","C:/Users/joaquincr/Desktop","no","mono","no","18","no","white","no","Professional and Technical Occupations","yes","768","C:/Users/joaquincr/Desktop/subject-54.csv","fake","Melodramatic Milgram","4.0.5","PurpleDenomination2","right","return","NA","NA","right","NA","right","2437.1848000446334","8550.110699958168","NA","NA","45329.93070001248","NA","2437.1848000446334","NA","NA","2","fake_2_50","1024","2","48000","-16","experiment","54","even","89348.85660000145","NA","72548.71540004387","98819.76230000146","NA","86282.85560000222","27165.806100005284","294051.3764000498","NA","NA","294559.97110006865","NA","27212.94170001056","NA","NA","NA","NA","NA","NA","NA","NA","NA","95071.39500009362","NA","294560.2974999929","107038.97320001852","294042.93910006527","NA","107035.93200002797","NA","95068.5128000332","296998.46380006056","NA","89345.25300003588","NA","NA","New experiment","20","161484.1347996844","37","1024"
"55","NA","55","4293","4293","#3d3846","psycho","NA","1","undefined","undefined","1","left","0","0","0","0","0","0","0","37","NA","0","37","NA","0","NA","NA","NA","0","NA","NA","NA","NA","NA","0","NA","37","0","37","0","0","0","0","37","0","0","0","NA","Fri Oct 27 18:50:22 2023","50","The main experiment item","yes","CogPsy_Assignment_With_Instruction.osexp","C:/Users/joaquincr/Desktop","no","mono","no","18","no","white","no","Professional and Technical Occupations","yes","768","C:/Users/joaquincr/Desktop/subject-54.csv","fake","Melodramatic Milgram","4.0.5","PurpleDenomination3","left","return","NA","NA","right","NA","left","1657.576599973254","8550.110699958168","NA","NA","45329.93070001248","NA","1657.576599973254","NA","NA","2","fake_2_50","1024","2","48000","-16","experiment","54","even","89348.85660000145","NA","72548.71540004387","98819.76230000146","NA","86282.85560000222","27165.806100005284","297448.3647000743","NA","NA","297957.4284000555","NA","27212.94170001056","NA","NA","NA","NA","NA","NA","NA","NA","NA","95071.39500009362","NA","297957.739100093","107038.97320001852","297432.56340001244","NA","107035.93200002797","NA","95068.5128000332","299616.21920007747","NA","89345.25300003588","NA","NA","New experiment","21","163141.71139965765","38","1024"
"53","NA","53","4221","4221","#3d3846","psycho","NA","0","undefined","undefined","0","left","0","0","0","0","0","0","0","38","NA","0","38","NA","0","NA","NA","NA","0","NA","NA","NA","NA","NA","0","NA","38","0","38","0","0","0","0","38","0","0","0","NA","Fri Oct 27 18:50:22 2023","50","The main experiment item","yes","CogPsy_Assignment_With_Instruction.osexp","C:/Users/joaquincr/Desktop","no","mono","no","18","no","white","no","Professional and Technical Occupations","yes","768","C:/Users/joaquincr/Desktop/subject-54.csv","fake","Melodramatic Milgram","4.0.5","PurpleDenomination","right","return","NA","NA","right","NA","right","1505.2855999674648","8550.110699958168","NA","NA","45329.93070001248","NA","1505.2855999674648","NA","NA","2","fake_2_50","1024","2","48000","-16","experiment","54","even","89348.85660000145","NA","72548.71540004387","98819.76230000146","NA","86282.85560000222","27165.806100005284","299810.09270006325","NA","NA","300318.37660004385","NA","27212.94170001056","NA","NA","NA","NA","NA","NA","NA","NA","NA","95071.39500009362","NA","300318.93080007285","107038.97320001852","299802.2808000678","NA","107035.93200002797","NA","95068.5128000332","301825.132100028","NA","89345.25300003588","NA","NA","New experiment","21","164646.99699962512","39","1024"
"52","NA","52","4165","4165","#3d3846","psycho","NA","0","undefined","undefined","0","left","0","0","0","0","0","0","0","39","NA","0","39","NA","0","NA","NA","NA","0","NA","NA","NA","NA","NA","0","NA","39","0","39","0","0","0","0","39","0","0","0","NA","Fri Oct 27 18:50:22 2023","50","The main experiment item","yes","CogPsy_Assignment_With_Instruction.osexp","C:/Users/joaquincr/Desktop","no","mono","no","18","no","white","no","Professional and Technical Occupations","yes","768","C:/Users/joaquincr/Desktop/subject-54.csv","fake","Melodramatic Milgram","4.0.5","NoNumOnThread_BlurryWatermark","right","return","NA","NA","right","NA","right","1956.5193000016734","8550.110699958168","NA","NA","45329.93070001248","NA","1956.5193000016734","NA","NA","2","fake_2_50","1024","2","48000","-16","experiment","54","even","89348.85660000145","NA","72548.71540004387","98819.76230000146","NA","86282.85560000222","27165.806100005284","302073.28930008225","NA","NA","302581.82060008403","NA","27212.94170001056","NA","NA","NA","NA","NA","NA","NA","NA","NA","95071.39500009362","NA","302582.1115000872","107038.97320001852","302062.91850004345","NA","107035.93200002797","NA","95068.5128000332","304539.7603000747","NA","89345.25300003588","NA","NA","New experiment","21","166603.5162996268","40","1024"
"53","NA","53","4098","4098","#3d3846","psycho","NA","1","undefined","undefined","1","left","0","0","0","0","0","0","0","40","NA","0","40","NA","0","NA","NA","NA","0","NA","NA","NA","NA","NA","0","NA","40","0","40","0","0","0","0","40","0","0","0","NA","Fri Oct 27 18:50:22 2023","50","The main experiment item","yes","CogPsy_Assignment_With_Instruction.osexp","C:/Users/joaquincr/Desktop","no","mono","no","18","no","white","no","Professional and Technical Occupations","yes","768","C:/Users/joaquincr/Desktop/subject-54.csv","fake","Melodramatic Milgram","4.0.5","bottom_left","left","return","NA","NA","right","NA","left","1434.4514000695199","8550.110699958168","NA","NA","45329.93070001248","NA","1434.4514000695199","NA","NA","2","fake_1_50","1024","2","48000","-16","experiment","54","even","89348.85660000145","NA","72548.71540004387","98819.76230000146","NA","86282.85560000222","27165.806100005284","304725.02610005904","NA","NA","305234.2024000827","NA","27212.94170001056","NA","NA","NA","NA","NA","NA","NA","NA","NA","95071.39500009362","NA","305234.59010000806","107038.97320001852","304717.0691000065","NA","107035.93200002797","NA","95068.5128000332","306670.5847000703","NA","89345.25300003588","NA","NA","New experiment","22","168037.9676996963","41","1024"
"52","NA","52","4068","4068","#3d3846","psycho","NA","0","undefined","undefined","0","right","0","0","0","0","0","0","0","41","NA","0","41","NA","0","NA","NA","NA","0","NA","NA","NA","NA","NA","0","NA","41","0","41","0","0","0","0","41","0","0","0","NA","Fri Oct 27 18:50:22 2023","50","The main experiment item","yes","CogPsy_Assignment_With_Instruction.osexp","C:/Users/joaquincr/Desktop","no","mono","no","18","no","white","no","Professional and Technical Occupations","yes","768","C:/Users/joaquincr/Desktop/subject-54.csv","real","Melodramatic Milgram","4.0.5","genuine","left","return","NA","NA","right","NA","left","2828.78660003189","8550.110699958168","NA","NA","45329.93070001248","NA","2828.78660003189","NA","NA","2","real_50","1024","2","48000","-16","experiment","54","even","89348.85660000145","NA","72548.71540004387","98819.76230000146","NA","86282.85560000222","27165.806100005284","306954.62140010204","NA","NA","307460.951999994","NA","27212.94170001056","NA","NA","NA","NA","NA","NA","NA","NA","NA","95071.39500009362","NA","307461.15780004766","107038.97320001852","306944.57370007876","NA","107035.93200002797","NA","95068.5128000332","310290.8343001036","NA","89345.25300003588","NA","NA","New experiment","22","170866.7542997282","42","1024"
"53","NA","53","4106","4106","#3d3846","psycho","NA","1","undefined","undefined","1","right","0","0","0","0","0","0","0","42","NA","0","42","NA","0","NA","NA","NA","0","NA","NA","NA","NA","NA","0","NA","42","0","42","0","0","0","0","42","0","0","0","NA","Fri Oct 27 18:50:22 2023","20","The main experiment item","yes","CogPsy_Assignment_With_Instruction.osexp","C:/Users/joaquincr/Desktop","no","mono","no","18","no","white","no","Professional and Technical Occupations","yes","768","C:/Users/joaquincr/Desktop/subject-54.csv","real","Melodramatic Milgram","4.0.5","photo","right","return","NA","NA","right","NA","right","5729.80319999624","8550.110699958168","NA","NA","45329.93070001248","NA","5729.80319999624","NA","NA","2","real_20","1024","2","48000","-16","experiment","54","even","89348.85660000145","NA","72548.71540004387","98819.76230000146","NA","86282.85560000222","27165.806100005284","310580.47080005053","NA","NA","311089.24700005446","NA","27212.94170001056","NA","NA","NA","NA","NA","NA","NA","NA","NA","95071.39500009362","NA","311089.5460000029","107038.97320001852","310572.04510003794","NA","107035.93200002797","NA","95068.5128000332","316820.4214000143","NA","89345.25300003588","NA","NA","New experiment","23","176596.55749972444","43","1024"
"54","NA","54","4086","4086","#3d3846","psycho","NA","1","undefined","undefined","1","left","0","0","0","0","0","0","0","43","NA","0","43","NA","0","NA","NA","NA","0","NA","NA","NA","NA","NA","0","NA","43","0","43","0","0","0","0","43","0","0","0","NA","Fri Oct 27 18:50:22 2023","20","The main experiment item","yes","CogPsy_Assignment_With_Instruction.osexp","C:/Users/joaquincr/Desktop","no","mono","no","18","no","white","no","Professional and Technical Occupations","yes","768","C:/Users/joaquincr/Desktop/subject-54.csv","fake","Melodramatic Milgram","4.0.5","PurpleDenomination","left","return","NA","NA","right","NA","left","3218.31020002719","8550.110699958168","NA","NA","45329.93070001248","NA","3218.31020002719","NA","NA","2","fake_20","1024","2","48000","-16","experiment","54","even","89348.85660000145","NA","72548.71540004387","98819.76230000146","NA","86282.85560000222","27165.806100005284","317053.77770005725","NA","NA","317560.244500055","NA","27212.94170001056","NA","NA","NA","NA","NA","NA","NA","NA","NA","95071.39500009362","NA","317560.48230000306","107038.97320001852","317045.215500053","NA","107035.93200002797","NA","95068.5128000332","320779.62410007603","NA","89345.25300003588","NA","NA","New experiment","24","179814.86769975163","44","1024"
"53","NA","53","4368","4368","#3d3846","psycho","NA","0","undefined","undefined","0","left","0","0","0","0","0","0","0","44","NA","0","44","NA","0","NA","NA","NA","0","NA","NA","NA","NA","NA","0","NA","44","0","44","0","0","0","0","44","0","0","0","NA","Fri Oct 27 18:50:22 2023","20","The main experiment item","yes","CogPsy_Assignment_With_Instruction.osexp","C:/Users/joaquincr/Desktop","no","mono","no","18","no","white","no","Professional and Technical Occupations","yes","768","C:/Users/joaquincr/Desktop/subject-54.csv","fake","Melodramatic Milgram","4.0.5","BadInk2","right","return","NA","NA","right","NA","right","16746.04580004234","8550.110699958168","NA","NA","45329.93070001248","NA","16746.04580004234","NA","NA","2","fake_20","1024","2","48000","-16","experiment","54","even","89348.85660000145","NA","72548.71540004387","98819.76230000146","NA","86282.85560000222","27165.806100005284","321042.37640008796","NA","NA","321551.0516000213","NA","27212.94170001056","NA","NA","NA","NA","NA","NA","NA","NA","NA","95071.39500009362","NA","321551.3393000001","107038.97320001852","321033.0655000871","NA","107035.93200002797","NA","95068.5128000332","338298.31600002944","NA","89345.25300003588","NA","NA","New experiment","24","196560.91349979397","45","1024"
"54","NA","54","4406","4406","#3d3846","psycho","NA","1","undefined","undefined","1","right","0","0","0","0","0","0","0","45","NA","0","45","NA","0","NA","NA","NA","0","NA","NA","NA","NA","NA","0","NA","45","0","45","0","0","0","0","45","0","0","0","NA","Fri Oct 27 18:50:22 2023","50","The main experiment item","yes","CogPsy_Assignment_With_Instruction.osexp","C:/Users/joaquincr/Desktop","no","mono","no","18","no","white","no","Professional and Technical Occupations","yes","768","C:/Users/joaquincr/Desktop/subject-54.csv","real","Melodramatic Milgram","4.0.5","photo","right","return","NA","NA","right","NA","right","6119.520299951546","8550.110699958168","NA","NA","45329.93070001248","NA","6119.520299951546","NA","NA","2","real_50","1024","2","48000","-16","experiment","54","even","89348.85660000145","NA","72548.71540004387","98819.76230000146","NA","86282.85560000222","27165.806100005284","338560.1901001064","NA","NA","339070.31290000305","NA","27212.94170001056","NA","NA","NA","NA","NA","NA","NA","NA","NA","95071.39500009362","NA","339070.6590000773","107038.97320001852","338550.38790008985","NA","107035.93200002797","NA","95068.5128000332","345191.07520009857","NA","89345.25300003588","NA","NA","New experiment","25","202680.43379974551","46","1024"
"55","NA","55","4405","4405","#3d3846","psycho","NA","1","undefined","undefined","1","left","0","0","0","0","0","0","0","46","NA","0","46","NA","0","NA","NA","NA","0","NA","NA","NA","NA","NA","0","NA","46","0","46","0","0","0","0","46","0","0","0","NA","Fri Oct 27 18:50:22 2023","20","The main experiment item","yes","CogPsy_Assignment_With_Instruction.osexp","C:/Users/joaquincr/Desktop","no","mono","no","18","no","white","no","Professional and Technical Occupations","yes","768","C:/Users/joaquincr/Desktop/subject-54.csv","fake","Melodramatic Milgram","4.0.5","DullHologram2","left","return","NA","NA","right","NA","left","4382.263300009072","8550.110699958168","NA","NA","45329.93070001248","NA","4382.263300009072","NA","NA","2","fake_20","1024","2","48000","-16","experiment","54","even","89348.85660000145","NA","72548.71540004387","98819.76230000146","NA","86282.85560000222","27165.806100005284","345450.17540000845","NA","NA","345960.734100081","NA","27212.94170001056","NA","NA","NA","NA","NA","NA","NA","NA","NA","95071.39500009362","NA","345961.14000002854","107038.97320001852","345441.4694000734","NA","107035.93200002797","NA","95068.5128000332","350345.0118000619","NA","89345.25300003588","NA","NA","New experiment","26","207062.6970997546","47","1024"
"54","NA","54","4341","4341","#3d3846","psycho","NA","0","undefined","undefined","0","right","0","0","0","0","0","0","0","47","NA","0","47","NA","0","NA","NA","NA","0","NA","NA","NA","NA","NA","0","NA","47","0","47","0","0","0","0","47","0","0","0","NA","Fri Oct 27 18:50:22 2023","50","The main experiment item","yes","CogPsy_Assignment_With_Instruction.osexp","C:/Users/joaquincr/Desktop","no","mono","no","18","no","white","no","Professional and Technical Occupations","yes","768","C:/Users/joaquincr/Desktop/subject-54.csv","real","Melodramatic Milgram","4.0.5","genuine","left","return","NA","NA","right","NA","left","1305.8879000600427","8550.110699958168","NA","NA","45329.93070001248","NA","1305.8879000600427","NA","NA","2","real_50","1024","2","48000","-16","experiment","54","even","89348.85660000145","NA","72548.71540004387","98819.76230000146","NA","86282.85560000222","27165.806100005284","350528.15970010124","NA","NA","351038.01560006104","NA","27212.94170001056","NA","NA","NA","NA","NA","NA","NA","NA","NA","95071.39500009362","NA","351038.43760001473","107038.97320001852","350518.53040000424","NA","107035.93200002797","NA","95068.5128000332","352345.56670009624","NA","89345.25300003588","NA","NA","New experiment","26","208368.58499981463","48","1024"
"55","NA","55","4315","4315","#3d3846","psycho","NA","1","undefined","undefined","1","right","0","0","0","0","0","0","0","48","NA","0","48","NA","0","NA","NA","NA","0","NA","NA","NA","NA","NA","0","NA","48","0","48","0","0","0","0","48","0","0","0","NA","Fri Oct 27 18:50:22 2023","50","The main experiment item","yes","CogPsy_Assignment_With_Instruction.osexp","C:/Users/joaquincr/Desktop","no","mono","no","18","no","white","no","Professional and Technical Occupations","yes","768","C:/Users/joaquincr/Desktop/subject-54.csv","real","Melodramatic Milgram","4.0.5","photo","right","return","NA","NA","right","NA","right","3093.8319000415504","8550.110699958168","NA","NA","45329.93070001248","NA","3093.8319000415504","NA","NA","2","real_50","1024","2","48000","-16","experiment","54","even","89348.85660000145","NA","72548.71540004387","98819.76230000146","NA","86282.85560000222","27165.806100005284","352569.79410001077","NA","NA","353079.0259001078","NA","27212.94170001056","NA","NA","NA","NA","NA","NA","NA","NA","NA","95071.39500009362","NA","353079.33880004566","107038.97320001852","352561.7984000128","NA","107035.93200002797","NA","95068.5128000332","356173.98870002944","NA","89345.25300003588","NA","NA","New experiment","27","211462.41689985618","49","1024"
"56","NA","56","4292","4292","#3d3846","psycho","NA","1","undefined","undefined","1","left","0","0","0","0","0","0","0","49","NA","0","49","NA","0","NA","NA","NA","0","NA","NA","NA","NA","NA","0","NA","49","0","49","0","0","0","0","49","0","0","0","NA","Fri Oct 27 18:50:22 2023","20","The main experiment item","yes","CogPsy_Assignment_With_Instruction.osexp","C:/Users/joaquincr/Desktop","no","mono","no","18","no","white","no","Professional and Technical Occupations","yes","768","C:/Users/joaquincr/Desktop/subject-54.csv","fake","Melodramatic Milgram","4.0.5","silver_strip","left","return","NA","NA","right","NA","left","3143.5276999836788","8550.110699958168","NA","NA","45329.93070001248","NA","3143.5276999836788","NA","NA","2","fake_2_20","1024","2","48000","-16","experiment","54","even","89348.85660000145","NA","72548.71540004387","98819.76230000146","NA","86282.85560000222","27165.806100005284","356423.1003000168","NA","NA","356931.4807000337","NA","27212.94170001056","NA","NA","NA","NA","NA","NA","NA","NA","NA","95071.39500009362","NA","356931.796100107","107038.97320001852","356413.02510001697","NA","107035.93200002797","NA","95068.5128000332","360076.5248000389","NA","89345.25300003588","NA","NA","New experiment","28","214605.94459983986","50","1024"
"56","NA","56","4243","4243","#3d3846","psycho","NA","1","undefined","undefined","1","left","0","0","0","0","0","0","0","50","NA","0","50","NA","0","NA","NA","NA","0","NA","NA","NA","NA","NA","0","NA","50","0","50","0","0","0","0","50","0","0","0","NA","Fri Oct 27 18:50:22 2023","20","The main experiment item","yes","CogPsy_Assignment_With_Instruction.osexp","C:/Users/joaquincr/Desktop","no","mono","no","18","no","white","no","Professional and Technical Occupations","yes","768","C:/Users/joaquincr/Desktop/subject-54.csv","fake","Melodramatic Milgram","4.0.5","silver_strip","left","return","NA","NA","right","NA","left","1815.469600027427","8550.110699958168","NA","NA","45329.93070001248","NA","1815.469600027427","NA","NA","2","fake_2_20","1024","2","48000","-16","experiment","54","even","89348.85660000145","NA","72548.71540004387","98819.76230000146","NA","86282.85560000222","27165.806100005284","360288.61320007127","NA","NA","360796.621400048","NA","27212.94170001056","NA","NA","NA","NA","NA","NA","NA","NA","NA","95071.39500009362","NA","360797.1268000547","107038.97320001852","360277.87920006085","NA","107035.93200002797","NA","95068.5128000332","362613.56490000617","NA","89345.25300003588","NA","NA","New experiment","29","216421.4141998673","51","1024"
"55","NA","55","4336","4336","#3d3846","psycho","NA","0","undefined","undefined","0","left","0","0","0","0","0","0","0","51","NA","0","51","NA","0","NA","NA","NA","0","NA","NA","NA","NA","NA","0","NA","51","0","51","0","0","0","0","51","0","0","0","NA","Fri Oct 27 18:50:22 2023","20","The main experiment item","yes","CogPsy_Assignment_With_Instruction.osexp","C:/Users/joaquincr/Desktop","no","mono","no","18","no","white","no","Professional and Technical Occupations","yes","768","C:/Users/joaquincr/Desktop/subject-54.csv","fake","Melodramatic Milgram","4.0.5","BadInk2","right","return","NA","NA","right","NA","right","9052.102299989201","8550.110699958168","NA","NA","45329.93070001248","NA","9052.102299989201","NA","NA","2","fake_20","1024","2","48000","-16","experiment","54","even","89348.85660000145","NA","72548.71540004387","98819.76230000146","NA","86282.85560000222","27165.806100005284","362852.63640002813","NA","NA","363360.22330005653","NA","27212.94170001056","NA","NA","NA","NA","NA","NA","NA","NA","NA","95071.39500009362","NA","363360.50110007636","107038.97320001852","362843.1535999989","NA","107035.93200002797","NA","95068.5128000332","372413.57830003835","NA","89345.25300003588","NA","NA","New experiment","29","225473.5164998565","52","1024"
"54","NA","54","4300","4300","#3d3846","psycho","NA","0","undefined","undefined","0","left","0","0","0","0","0","0","0","52","NA","0","52","NA","0","NA","NA","NA","0","NA","NA","NA","NA","NA","0","NA","52","0","52","0","0","0","0","52","0","0","0","NA","Fri Oct 27 18:50:22 2023","20","The main experiment item","yes","CogPsy_Assignment_With_Instruction.osexp","C:/Users/joaquincr/Desktop","no","mono","no","18","no","white","no","Professional and Technical Occupations","yes","768","C:/Users/joaquincr/Desktop/subject-54.csv","fake","Melodramatic Milgram","4.0.5","BrownDenomination","right","return","NA","NA","right","NA","right","2444.2113999975845","8550.110699958168","NA","NA","45329.93070001248","NA","2444.2113999975845","NA","NA","2","fake_20","1024","2","48000","-16","experiment","54","even","89348.85660000145","NA","72548.71540004387","98819.76230000146","NA","86282.85560000222","27165.806100005284","372689.6761000389","NA","NA","373198.203500011","NA","27212.94170001056","NA","NA","NA","NA","NA","NA","NA","NA","NA","95071.39500009362","NA","373198.48000002094","107038.97320001852","372681.25030002557","NA","107035.93200002797","NA","95068.5128000332","375645.6588000292","NA","89345.25300003588","NA","NA","New experiment","29","227917.72789985407","53","1024"
"53","NA","53","4288","4288","#3d3846","psycho","NA","0","undefined","undefined","0","right","0","0","0","0","0","0","0","53","NA","0","53","NA","0","NA","NA","NA","0","NA","NA","NA","NA","NA","0","NA","53","0","53","0","0","0","0","53","0","0","0","NA","Fri Oct 27 18:50:22 2023","20","The main experiment item","yes","CogPsy_Assignment_With_Instruction.osexp","C:/Users/joaquincr/Desktop","no","mono","no","18","no","white","no","Professional and Technical Occupations","yes","768","C:/Users/joaquincr/Desktop/subject-54.csv","real","Melodramatic Milgram","4.0.5","genuine","left","return","NA","NA","right","NA","left","3684.1070000082254","8550.110699958168","NA","NA","45329.93070001248","NA","3684.1070000082254","NA","NA","2","real_20","1024","2","48000","-16","experiment","54","even","89348.85660000145","NA","72548.71540004387","98819.76230000146","NA","86282.85560000222","27165.806100005284","375864.78200007696","NA","NA","376369.82150003314","NA","27212.94170001056","NA","NA","NA","NA","NA","NA","NA","NA","NA","95071.39500009362","NA","376369.98910002876","107038.97320001852","375856.080400059","NA","107035.93200002797","NA","95068.5128000332","380055.3941000253","NA","89345.25300003588","NA","NA","New experiment","29","231601.8348998623","54","1024"
"53","NA","53","4288","4288","#3d3846","psycho","NA","0","undefined","undefined","0","right","0","0","0","0","0","0","0","53","NA","0","53","NA","0","NA","NA","NA","0","NA","NA","NA","NA","NA","0","NA","53","0","53","0","0","0","0","53","0","0","0","NA","Fri Oct 27 18:50:22 2023","20","The main experiment item","yes","CogPsy_Assignment_With_Instruction.osexp","C:/Users/joaquincr/Desktop","no","mono","no","18","no","white","no","Color of banknote value, ink quality, silver threading, security threading, watermark","yes","768","C:/Users/joaquincr/Desktop/subject-54.csv","real","Melodramatic Milgram","4.0.5","genuine","Color of banknote value, ink quality, silver threading, security threading, watermark","return","NA","NA","right","NA","left","3684.1070000082254","8550.110699958168","NA","NA","45329.93070001248","NA","3684.1070000082254","NA","NA","2","real_20","1024","2","48000","-16","experiment","54","even","89348.85660000145","NA","72548.71540004387","98819.76230000146","NA","86282.85560000222","27165.806100005284","375864.78200007696","NA","NA","376369.82150003314","NA","27212.94170001056","NA","NA","NA","497029.0081000421","NA","NA","NA","NA","NA","95071.39500009362","NA","376369.98910002876","107038.97320001852","375856.080400059","NA","107035.93200002797","380292.8495000815","95068.5128000332","380055.3941000253","NA","89345.25300003588","NA","NA","New experiment","29","231601.8348998623","54","1024"
"53","NA","53","4288","4288","#3d3846","psycho","NA","0","undefined","undefined","0","right","0","0","0","0","0","0","0","53","NA","0","53","NA","0","NA","NA","NA","0","NA","NA","NA","NA","NA","0","NA","53","0","53","0","0","0","0","53","0","0","0","NA","Fri Oct 27 18:50:22 2023","20","The main experiment item","yes","CogPsy_Assignment_With_Instruction.osexp","C:/Users/joaquincr/Desktop","no","mono","no","18","no","white","no","Ok","yes","768","C:/Users/joaquincr/Desktop/subject-54.csv","real","Melodramatic Milgram","4.0.5","genuine","Silver strip (security thread);UV hologram;Colors of text;Text values;Watermark;Ink quality","return","NA","NA","right","NA","left","3684.1070000082254","8550.110699958168","NA","NA","45329.93070001248","NA","3684.1070000082254","NA","NA","2","real_20","1024","2","48000","-16","experiment","54","even","89348.85660000145","NA","72548.71540004387","98819.76230000146","NA","86282.85560000222","27165.806100005284","375864.78200007696","NA","NA","376369.82150003314","NA","27212.94170001056","NA","NA","NA","497029.0081000421","NA","NA","NA","NA","NA","95071.39500009362","NA","376369.98910002876","107038.97320001852","375856.080400059","NA","107035.93200002797","380292.8495000815","95068.5128000332","380055.3941000253","NA","89345.25300003588","514560.32560009044","NA","New experiment","29","231601.8348998623","54","1024"
