"acc","accept_status","accuracy","average_response_time","avg_rt","background","canvas_backend","checkbox_status","correct","correct_consent_sketchpad","correct_instruction_sketchpad","correct_new_keyboard_response","correct_response","count_age_form","count_checkbox_security_form","count_consent_sketchpad","count_country_logger","count_eurozone_form","count_eurozone_logger","count_experiment","count_fixation_dots","count_getting_started","count_goodbye_sketchpad","count_images_sketchpad","count_information_display_sketchpad","count_instruction_sketchpad","count_new_1_form_base","count_new_1_form_text_input","count_new_1_sketchpad","count_new_2_logger","count_new_4_form_multiple_choice","count_new_form_base","count_new_form_consent","count_new_form_multiple_choice","count_new_form_text_display","count_new_form_text_input","count_new_inline_script","count_new_keyboard_response","count_new_loop","count_new_sequence","count_occupation_form","count_occupation_logger","count_open_security_input_form","count_personal_data_logger","count_response_logger","count_schooling_level_form","count_schooling_logger","count_security_feature_logger","count_welcome","datetime","denomination","description","disable_garbage_collection","experiment_file","experiment_path","font_bold","font_family","font_italic","font_size","font_underline","foreground","form_clicks","form_response","fullscreen","height","logfile","note_type","opensesame_codename","opensesame_version","reason","response","response_consent_sketchpad","response_goodbye_sketchpad","response_information_display_sketchpad","response_instruction_sketchpad","response_new_1_sketchpad","response_new_keyboard_response","response_time","response_time_consent_sketchpad","response_time_goodbye_sketchpad","response_time_information_display_sketchpad","response_time_instruction_sketchpad","response_time_new_1_sketchpad","response_time_new_keyboard_response","response_time_welcome","response_welcome","round_decimals","show","sound_buf_size","sound_channels","sound_freq","sound_sample_size","start","subject_nr","subject_parity","time_age_form","time_checkbox_security_form","time_consent_sketchpad","time_country_logger","time_eurozone_form","time_eurozone_logger","time_experiment","time_fixation_dots","time_getting_started","time_goodbye_sketchpad","time_images_sketchpad","time_information_display_sketchpad","time_instruction_sketchpad","time_new_1_form_base","time_new_1_form_text_input","time_new_1_sketchpad","time_new_2_logger","time_new_4_form_multiple_choice","time_new_form_base","time_new_form_consent","time_new_form_multiple_choice","time_new_form_text_display","time_new_form_text_input","time_new_inline_script","time_new_keyboard_response","time_new_loop","time_new_sequence","time_occupation_form","time_occupation_logger","time_open_security_input_form","time_personal_data_logger","time_response_logger","time_schooling_level_form","time_schooling_logger","time_security_feature_logger","time_welcome","title","total_correct","total_response_time","total_responses","width"
"undefined","NA","undefined","undefined","undefined","#3d3846","psycho","NA","undefined","undefined","undefined","NA","NA","0","0","0","0","0","0","0","NA","NA","0","NA","0","0","NA","NA","NA","0","NA","NA","NA","NA","NA","0","NA","NA","0","NA","0","0","0","0","NA","0","0","0","NA","Fri Oct 27 22:52:26 2023","NA","The main experiment item","yes","CogPsy_Assignment_With_Instruction.osexp","/Users/andrasjoos/Documents/AI Masters/Period 1/Cognitive Psychology/Research project","no","mono","no","18","no","white","no","No","yes","768","/Users/andrasjoos/Documents/AI Masters/Period 1/Cognitive Psychology/Research project/results/subject-10.csv","NA","Melodramatic Milgram","4.0.5","NA","No","right","NA","NA","right","NA","NA","4598.713999992469","4598.713999992469","NA","NA","1644.2924170114566","NA","NA","NA","NA","2","NA","1024","2","48000","-16","experiment","10","even","NA","NA","6321.501124999486","NA","NA","14605.325249984162","4499.627166980645","NA","NA","NA","NA","NA","4529.5895419840235","NA","NA","NA","NA","NA","NA","NA","NA","NA","NA","NA","NA","NA","NA","NA","NA","NA","NA","NA","NA","NA","NA","NA","New experiment","0","0","0","1024"
"undefined","NA","undefined","undefined","undefined","#3d3846","psycho","NA","undefined","undefined","undefined","NA","NA","0","0","0","0","0","0","0","NA","NA","0","NA","0","0","NA","NA","NA","0","NA","NA","NA","NA","NA","0","NA","NA","0","NA","0","0","0","0","NA","0","0","0","NA","Fri Oct 27 22:52:26 2023","NA","The main experiment item","yes","CogPsy_Assignment_With_Instruction.osexp","/Users/andrasjoos/Documents/AI Masters/Period 1/Cognitive Psychology/Research project","no","mono","no","18","no","white","no","Bachelors","yes","768","/Users/andrasjoos/Documents/AI Masters/Period 1/Cognitive Psychology/Research project/results/subject-10.csv","NA","Melodramatic Milgram","4.0.5","NA","Bachelors","right","NA","NA","right","NA","NA","4598.713999992469","4598.713999992469","NA","NA","1644.2924170114566","NA","NA","NA","NA","2","NA","1024","2","48000","-16","experiment","10","even","NA","NA","6321.501124999486","NA","NA","14605.325249984162","4499.627166980645","NA","NA","NA","NA","NA","4529.5895419840235","NA","NA","NA","NA","NA","NA","NA","NA","NA","NA","NA","NA","NA","NA","NA","NA","NA","NA","NA","NA","17344.871459004935","NA","NA","New experiment","0","0","0","1024"
"undefined","NA","undefined","undefined","undefined","#3d3846","psycho","NA","undefined","undefined","undefined","NA","NA","0","0","0","0","0","0","0","NA","NA","0","NA","0","0","NA","NA","NA","0","NA","NA","NA","NA","NA","0","NA","NA","0","NA","0","0","0","0","NA","0","0","0","NA","Fri Oct 27 22:52:26 2023","NA","The main experiment item","yes","CogPsy_Assignment_With_Instruction.osexp","/Users/andrasjoos/Documents/AI Masters/Period 1/Cognitive Psychology/Research project","no","mono","no","18","no","white","no","24","yes","768","/Users/andrasjoos/Documents/AI Masters/Period 1/Cognitive Psychology/Research project/results/subject-10.csv","NA","Melodramatic Milgram","4.0.5","NA","24","right","NA","NA","right","NA","NA","4598.713999992469","4598.713999992469","NA","NA","1644.2924170114566","NA","NA","NA","NA","2","NA","1024","2","48000","-16","experiment","10","even","17345.623959001387","NA","6321.501124999486","NA","NA","14605.325249984162","4499.627166980645","NA","NA","NA","NA","NA","4529.5895419840235","NA","NA","NA","NA","NA","NA","NA","NA","NA","NA","NA","NA","NA","NA","NA","NA","NA","23127.909167000325","NA","NA","17344.871459004935","NA","NA","New experiment","0","0","0","1024"
"undefined","NA","undefined","undefined","undefined","#3d3846","psycho","NA","undefined","undefined","undefined","NA","NA","0","0","0","0","0","0","0","NA","NA","0","NA","0","0","NA","NA","NA","0","NA","NA","NA","NA","NA","0","NA","NA","0","NA","0","0","0","0","NA","0","0","0","NA","Fri Oct 27 22:52:26 2023","NA","The main experiment item","yes","CogPsy_Assignment_With_Instruction.osexp","/Users/andrasjoos/Documents/AI Masters/Period 1/Cognitive Psychology/Research project","no","mono","no","18","no","white","no","dutch","yes","768","/Users/andrasjoos/Documents/AI Masters/Period 1/Cognitive Psychology/Research project/results/subject-10.csv","NA","Melodramatic Milgram","4.0.5","NA","dutch","right","NA","NA","right","NA","NA","4598.713999992469","4598.713999992469","NA","NA","1644.2924170114566","NA","NA","NA","NA","2","NA","1024","2","48000","-16","experiment","10","even","17345.623959001387","NA","6321.501124999486","30216.441541997483","NA","14605.325249984162","4499.627166980645","NA","NA","NA","NA","NA","4529.5895419840235","NA","NA","NA","NA","NA","NA","NA","NA","NA","23128.456541977357","NA","NA","NA","NA","NA","NA","NA","23127.909167000325","NA","NA","17344.871459004935","NA","NA","New experiment","0","0","0","1024"
"undefined","NA","undefined","undefined","undefined","#3d3846","psycho","NA","undefined","undefined","undefined","NA","NA","0","0","0","0","0","0","0","NA","NA","0","NA","0","0","NA","NA","NA","0","NA","NA","NA","NA","NA","0","NA","NA","0","NA","0","0","0","0","NA","0","0","0","NA","Fri Oct 27 22:52:26 2023","NA","The main experiment item","yes","CogPsy_Assignment_With_Instruction.osexp","/Users/andrasjoos/Documents/AI Masters/Period 1/Cognitive Psychology/Research project","no","mono","no","18","no","white","no","Professional and Technical Occupations","yes","768","/Users/andrasjoos/Documents/AI Masters/Period 1/Cognitive Psychology/Research project/results/subject-10.csv","NA","Melodramatic Milgram","4.0.5","NA","Professional and Technical Occupations","right","NA","NA","right","NA","NA","4598.713999992469","4598.713999992469","NA","NA","1644.2924170114566","NA","NA","NA","NA","2","NA","1024","2","48000","-16","experiment","10","even","17345.623959001387","NA","6321.501124999486","30216.441541997483","NA","14605.325249984162","4499.627166980645","NA","NA","NA","NA","NA","4529.5895419840235","NA","NA","NA","NA","NA","NA","NA","NA","NA","23128.456541977357","NA","NA","NA","NA","NA","51347.15191699797","NA","23127.909167000325","NA","NA","17344.871459004935","NA","NA","New experiment","0","0","0","1024"
"100","NA","100","10381","10381","#3d3846","psycho","NA","1","undefined","undefined","1","left","0","0","0","0","0","0","0","0","NA","0","0","0","0","NA","NA","NA","0","NA","NA","NA","NA","NA","0","NA","0","0","0","0","0","0","0","0","0","0","0","NA","Fri Oct 27 22:52:26 2023","20","The main experiment item","yes","CogPsy_Assignment_With_Instruction.osexp","/Users/andrasjoos/Documents/AI Masters/Period 1/Cognitive Psychology/Research project","no","mono","no","18","no","white","no","Professional and Technical Occupations","yes","768","/Users/andrasjoos/Documents/AI Masters/Period 1/Cognitive Psychology/Research project/results/subject-10.csv","fake","Melodramatic Milgram","4.0.5","silver_strip","left","right","NA","space","right","NA","left","10381.775957997888","4598.713999992469","NA","73200.0228749821","1644.2924170114566","NA","10381.775957997888","NA","NA","2","fake_2_20","1024","2","48000","-16","experiment","10","even","17345.623959001387","NA","6321.501124999486","30216.441541997483","NA","14605.325249984162","4499.627166980645","124625.50220900448","NA","NA","125131.2871669943","51361.32479200023","4529.5895419840235","NA","NA","NA","NA","NA","NA","NA","NA","NA","23128.456541977357","NA","125131.42941700062","124564.1312499938","124606.5993339871","NA","51347.15191699797","NA","23127.909167000325","135514.67004200094","NA","17344.871459004935","NA","NA","New experiment","1","10381.775957997888","1","1024"
"100","NA","100","8251","8251","#3d3846","psycho","NA","1","undefined","undefined","1","right","0","0","0","0","0","0","0","1","NA","0","1","0","0","NA","NA","NA","0","NA","NA","NA","NA","NA","0","NA","1","0","1","0","0","0","0","1","0","0","0","NA","Fri Oct 27 22:52:26 2023","20","The main experiment item","yes","CogPsy_Assignment_With_Instruction.osexp","/Users/andrasjoos/Documents/AI Masters/Period 1/Cognitive Psychology/Research project","no","mono","no","18","no","white","no","Professional and Technical Occupations","yes","768","/Users/andrasjoos/Documents/AI Masters/Period 1/Cognitive Psychology/Research project/results/subject-10.csv","real","Melodramatic Milgram","4.0.5","photo","right","right","NA","space","right","NA","right","6120.694040990202","4598.713999992469","NA","73200.0228749821","1644.2924170114566","NA","6120.694040990202","NA","NA","2","real_20","1024","2","48000","-16","experiment","10","even","17345.623959001387","NA","6321.501124999486","30216.441541997483","NA","14605.325249984162","4499.627166980645","135705.73170899297","NA","NA","136209.9321669957","51361.32479200023","4529.5895419840235","NA","NA","NA","NA","NA","NA","NA","NA","NA","23128.456541977357","NA","136210.06695899996","124564.1312499938","135696.55349999084","NA","51347.15191699797","NA","23127.909167000325","142331.92762499675","NA","17344.871459004935","NA","NA","New experiment","2","16502.46999898809","2","1024"
"66","NA","66","11941","11941","#3d3846","psycho","NA","0","undefined","undefined","0","left","0","0","0","0","0","0","0","2","NA","0","2","0","0","NA","NA","NA","0","NA","NA","NA","NA","NA","0","NA","2","0","2","0","0","0","0","2","0","0","0","NA","Fri Oct 27 22:52:26 2023","50","The main experiment item","yes","CogPsy_Assignment_With_Instruction.osexp","/Users/andrasjoos/Documents/AI Masters/Period 1/Cognitive Psychology/Research project","no","mono","no","18","no","white","no","Professional and Technical Occupations","yes","768","/Users/andrasjoos/Documents/AI Masters/Period 1/Cognitive Psychology/Research project/results/subject-10.csv","fake","Melodramatic Milgram","4.0.5","NoNumOnThread_BlurryWatermark","right","right","NA","space","right","NA","right","19323.0274579837","4598.713999992469","NA","73200.0228749821","1644.2924170114566","NA","19323.0274579837","NA","NA","2","fake_2_50","1024","2","48000","-16","experiment","10","even","17345.623959001387","NA","6321.501124999486","30216.441541997483","NA","14605.325249984162","4499.627166980645","142427.17437498504","NA","NA","142931.20016698958","51361.32479200023","4529.5895419840235","NA","NA","NA","NA","NA","NA","NA","NA","NA","23128.456541977357","NA","142931.32345899357","124564.1312499938","142419.2011669802","NA","51347.15191699797","NA","23127.909167000325","162255.90349998674","NA","17344.871459004935","NA","NA","New experiment","2","35825.49745697179","3","1024"
"75","NA","75","10548","10548","#3d3846","psycho","NA","1","undefined","undefined","1","left","0","0","0","0","0","0","0","3","NA","0","3","0","0","NA","NA","NA","0","NA","NA","NA","NA","NA","0","NA","3","0","3","0","0","0","0","3","0","0","0","NA","Fri Oct 27 22:52:26 2023","20","The main experiment item","yes","CogPsy_Assignment_With_Instruction.osexp","/Users/andrasjoos/Documents/AI Masters/Period 1/Cognitive Psychology/Research project","no","mono","no","18","no","white","no","Professional and Technical Occupations","yes","768","/Users/andrasjoos/Documents/AI Masters/Period 1/Cognitive Psychology/Research project/results/subject-10.csv","fake","Melodramatic Milgram","4.0.5","BadInk2","left","right","NA","space","right","NA","left","6367.78512498131","4598.713999992469","NA","73200.0228749821","1644.2924170114566","NA","6367.78512498131","NA","NA","2","fake_20","1024","2","48000","-16","experiment","10","even","17345.623959001387","NA","6321.501124999486","30216.441541997483","NA","14605.325249984162","4499.627166980645","162385.45858400175","NA","NA","162890.94499999192","51361.32479200023","4529.5895419840235","NA","NA","NA","NA","NA","NA","NA","NA","NA","23128.456541977357","NA","162891.0842500045","124564.1312499938","162355.3139999858","NA","51347.15191699797","NA","23127.909167000325","169260.44208399253","NA","17344.871459004935","NA","NA","New experiment","3","42193.2825819531","4","1024"
"80","NA","80","9610","9610","#3d3846","psycho","NA","1","undefined","undefined","1","left","0","0","0","0","0","0","0","4","NA","0","4","0","0","NA","NA","NA","0","NA","NA","NA","NA","NA","0","NA","4","0","4","0","0","0","0","4","0","0","0","NA","Fri Oct 27 22:52:26 2023","50","The main experiment item","yes","CogPsy_Assignment_With_Instruction.osexp","/Users/andrasjoos/Documents/AI Masters/Period 1/Cognitive Psychology/Research project","no","mono","no","18","no","white","no","Professional and Technical Occupations","yes","768","/Users/andrasjoos/Documents/AI Masters/Period 1/Cognitive Psychology/Research project/results/subject-10.csv","fake","Melodramatic Milgram","4.0.5","bottom_left","left","right","NA","space","right","NA","left","5860.396125004627","4598.713999992469","NA","73200.0228749821","1644.2924170114566","NA","5860.396125004627","NA","NA","2","fake_1_50","1024","2","48000","-16","experiment","10","even","17345.623959001387","NA","6321.501124999486","30216.441541997483","NA","14605.325249984162","4499.627166980645","169334.34470900102","NA","NA","169838.50349998102","51361.32479200023","4529.5895419840235","NA","NA","NA","NA","NA","NA","NA","NA","NA","23128.456541977357","NA","169838.62450000015","124564.1312499938","169326.47166698007","NA","51347.15191699797","NA","23127.909167000325","175700.60841698432","NA","17344.871459004935","NA","NA","New experiment","4","48053.678706957726","5","1024"
"83","NA","83","8592","8592","#3d3846","psycho","NA","1","undefined","undefined","1","right","0","0","0","0","0","0","0","5","NA","0","5","0","0","NA","NA","NA","0","NA","NA","NA","NA","NA","0","NA","5","0","5","0","0","0","0","5","0","0","0","NA","Fri Oct 27 22:52:26 2023","50","The main experiment item","yes","CogPsy_Assignment_With_Instruction.osexp","/Users/andrasjoos/Documents/AI Masters/Period 1/Cognitive Psychology/Research project","no","mono","no","18","no","white","no","Professional and Technical Occupations","yes","768","/Users/andrasjoos/Documents/AI Masters/Period 1/Cognitive Psychology/Research project/results/subject-10.csv","real","Melodramatic Milgram","4.0.5","genuine","right","right","NA","space","right","NA","right","3502.164374978747","4598.713999992469","NA","73200.0228749821","1644.2924170114566","NA","3502.164374978747","NA","NA","2","real_20","1024","2","48000","-16","experiment","10","even","17345.623959001387","NA","6321.501124999486","30216.441541997483","NA","14605.325249984162","4499.627166980645","175784.28454199457","NA","NA","176288.90058398247","51361.32479200023","4529.5895419840235","NA","NA","NA","NA","NA","NA","NA","NA","NA","23128.456541977357","NA","176289.0332090028","124564.1312499938","175776.1304169835","NA","51347.15191699797","NA","23127.909167000325","179792.3237499781","NA","17344.871459004935","NA","NA","New experiment","5","51555.84308193647","6","1024"
"71","NA","71","7597","7597","#3d3846","psycho","NA","0","undefined","undefined","0","left","0","0","0","0","0","0","0","6","NA","0","6","0","0","NA","NA","NA","0","NA","NA","NA","NA","NA","0","NA","6","0","6","0","0","0","0","6","0","0","0","NA","Fri Oct 27 22:52:26 2023","20","The main experiment item","yes","CogPsy_Assignment_With_Instruction.osexp","/Users/andrasjoos/Documents/AI Masters/Period 1/Cognitive Psychology/Research project","no","mono","no","18","no","white","no","Professional and Technical Occupations","yes","768","/Users/andrasjoos/Documents/AI Masters/Period 1/Cognitive Psychology/Research project/results/subject-10.csv","fake","Melodramatic Milgram","4.0.5","DullHologram2","right","right","NA","space","right","NA","right","1626.7281670006923","4598.713999992469","NA","73200.0228749821","1644.2924170114566","NA","1626.7281670006923","NA","NA","2","fake_20","1024","2","48000","-16","experiment","10","even","17345.623959001387","NA","6321.501124999486","30216.441541997483","NA","14605.325249984162","4499.627166980645","179886.1721669964","NA","NA","180390.2825419791","51361.32479200023","4529.5895419840235","NA","NA","NA","NA","NA","NA","NA","NA","NA","23128.456541977357","NA","180390.42029198026","124564.1312499938","179879.69691699254","NA","51347.15191699797","NA","23127.909167000325","182018.32124998327","NA","17344.871459004935","NA","NA","New experiment","5","53182.571248937165","7","1024"
"75","NA","75","7256","7256","#3d3846","psycho","NA","1","undefined","undefined","1","right","0","0","0","0","0","0","0","7","NA","0","7","0","0","NA","NA","NA","0","NA","NA","NA","NA","NA","0","NA","7","0","7","0","0","0","0","7","0","0","0","NA","Fri Oct 27 22:52:26 2023","50","The main experiment item","yes","CogPsy_Assignment_With_Instruction.osexp","/Users/andrasjoos/Documents/AI Masters/Period 1/Cognitive Psychology/Research project","no","mono","no","18","no","white","no","Professional and Technical Occupations","yes","768","/Users/andrasjoos/Documents/AI Masters/Period 1/Cognitive Psychology/Research project/results/subject-10.csv","real","Melodramatic Milgram","4.0.5","photo","right","right","NA","space","right","NA","right","4869.364582991693","4598.713999992469","NA","73200.0228749821","1644.2924170114566","NA","4869.364582991693","NA","NA","2","real_50","1024","2","48000","-16","experiment","10","even","17345.623959001387","NA","6321.501124999486","30216.441541997483","NA","14605.325249984162","4499.627166980645","182121.10837499495","NA","NA","182625.27649998083","51361.32479200023","4529.5895419840235","NA","NA","NA","NA","NA","NA","NA","NA","NA","23128.456541977357","NA","182625.41916698683","124564.1312499938","182107.18887500116","NA","51347.15191699797","NA","23127.909167000325","187496.1353749968","NA","17344.871459004935","NA","NA","New experiment","6","58051.93583192886","8","1024"
"77","NA","77","6874","6874","#3d3846","psycho","NA","1","undefined","undefined","1","right","0","0","0","0","0","0","0","8","NA","0","8","0","0","NA","NA","NA","0","NA","NA","NA","NA","NA","0","NA","8","0","8","0","0","0","0","8","0","0","0","NA","Fri Oct 27 22:52:26 2023","20","The main experiment item","yes","CogPsy_Assignment_With_Instruction.osexp","/Users/andrasjoos/Documents/AI Masters/Period 1/Cognitive Psychology/Research project","no","mono","no","18","no","white","no","Professional and Technical Occupations","yes","768","/Users/andrasjoos/Documents/AI Masters/Period 1/Cognitive Psychology/Research project/results/subject-10.csv","real","Melodramatic Milgram","4.0.5","photo","right","right","NA","space","right","NA","right","3819.264291989384","4598.713999992469","NA","73200.0228749821","1644.2924170114566","NA","3819.264291989384","NA","NA","2","real_20","1024","2","48000","-16","experiment","10","even","17345.623959001387","NA","6321.501124999486","30216.441541997483","NA","14605.325249984162","4499.627166980645","187615.16729198047","NA","NA","188119.3942919781","51361.32479200023","4529.5895419840235","NA","NA","NA","NA","NA","NA","NA","NA","NA","23128.456541977357","NA","188119.53762499616","124564.1312499938","187603.03058399586","NA","51347.15191699797","NA","23127.909167000325","191940.1304999774","NA","17344.871459004935","NA","NA","New experiment","7","61871.20012391824","9","1024"
"70","NA","70","6627","6627","#3d3846","psycho","NA","0","undefined","undefined","0","right","0","0","0","0","0","0","0","9","NA","0","9","0","0","NA","NA","NA","0","NA","NA","NA","NA","NA","0","NA","9","0","9","0","0","0","0","9","0","0","0","NA","Fri Oct 27 22:52:26 2023","50","The main experiment item","yes","CogPsy_Assignment_With_Instruction.osexp","/Users/andrasjoos/Documents/AI Masters/Period 1/Cognitive Psychology/Research project","no","mono","no","18","no","white","no","Professional and Technical Occupations","yes","768","/Users/andrasjoos/Documents/AI Masters/Period 1/Cognitive Psychology/Research project/results/subject-10.csv","real","Melodramatic Milgram","4.0.5","photo","left","right","NA","space","right","NA","left","4399.247374996776","4598.713999992469","NA","73200.0228749821","1644.2924170114566","NA","4399.247374996776","NA","NA","2","real_50","1024","2","48000","-16","experiment","10","even","17345.623959001387","NA","6321.501124999486","30216.441541997483","NA","14605.325249984162","4499.627166980645","192034.90754199447","NA","NA","192539.32300000452","51361.32479200023","4529.5895419840235","NA","NA","NA","NA","NA","NA","NA","NA","NA","23128.456541977357","NA","192539.46075000567","124564.1312499938","192027.42341699195","NA","51347.15191699797","NA","23127.909167000325","196939.913374983","NA","17344.871459004935","NA","NA","New experiment","7","66270.44749891502","10","1024"
"63","NA","63","6942","6942","#3d3846","psycho","NA","0","undefined","undefined","0","left","0","0","0","0","0","0","0","10","NA","0","10","0","0","NA","NA","NA","0","NA","NA","NA","NA","NA","0","NA","10","0","10","0","0","0","0","10","0","0","0","NA","Fri Oct 27 22:52:26 2023","20","The main experiment item","yes","CogPsy_Assignment_With_Instruction.osexp","/Users/andrasjoos/Documents/AI Masters/Period 1/Cognitive Psychology/Research project","no","mono","no","18","no","white","no","Professional and Technical Occupations","yes","768","/Users/andrasjoos/Documents/AI Masters/Period 1/Cognitive Psychology/Research project/results/subject-10.csv","fake","Melodramatic Milgram","4.0.5","PurpleDenomination","right","right","NA","space","right","NA","right","10092.942290997598","4598.713999992469","NA","73200.0228749821","1644.2924170114566","NA","10092.942290997598","NA","NA","2","fake_20","1024","2","48000","-16","experiment","10","even","17345.623959001387","NA","6321.501124999486","30216.441541997483","NA","14605.325249984162","4499.627166980645","197037.86574999685","NA","NA","197541.8973749911","51361.32479200023","4529.5895419840235","NA","NA","NA","NA","NA","NA","NA","NA","NA","23128.456541977357","NA","197542.02133399667","124564.1312499938","197030.16762499465","NA","51347.15191699797","NA","23127.909167000325","207637.2464169981","NA","17344.871459004935","NA","NA","New experiment","7","76363.38978991262","11","1024"
"66","NA","66","6733","6733","#3d3846","psycho","NA","1","undefined","undefined","1","left","0","0","0","0","0","0","0","11","NA","0","11","0","0","NA","NA","NA","0","NA","NA","NA","NA","NA","0","NA","11","0","11","0","0","0","0","11","0","0","0","NA","Fri Oct 27 22:52:26 2023","50","The main experiment item","yes","CogPsy_Assignment_With_Instruction.osexp","/Users/andrasjoos/Documents/AI Masters/Period 1/Cognitive Psychology/Research project","no","mono","no","18","no","white","no","Professional and Technical Occupations","yes","768","/Users/andrasjoos/Documents/AI Masters/Period 1/Cognitive Psychology/Research project/results/subject-10.csv","fake","Melodramatic Milgram","4.0.5","silver_strip","left","right","NA","space","right","NA","left","4438.871416001348","4598.713999992469","NA","73200.0228749821","1644.2924170114566","NA","4438.871416001348","NA","NA","2","fake_2_50","1024","2","48000","-16","experiment","10","even","17345.623959001387","NA","6321.501124999486","30216.441541997483","NA","14605.325249984162","4499.627166980645","207747.2657499893","NA","NA","208252.9879169888","51361.32479200023","4529.5895419840235","NA","NA","NA","NA","NA","NA","NA","NA","NA","23128.456541977357","NA","208253.14933399204","124564.1312499938","207717.94412500458","NA","51347.15191699797","NA","23127.909167000325","212693.49833400338","NA","17344.871459004935","NA","NA","New experiment","8","80802.26120591396","12","1024"
"61","NA","61","6538","6538","#3d3846","psycho","NA","0","undefined","undefined","0","left","0","0","0","0","0","0","0","12","NA","0","12","0","0","NA","NA","NA","0","NA","NA","NA","NA","NA","0","NA","12","0","12","0","0","0","0","12","0","0","0","NA","Fri Oct 27 22:52:26 2023","50","The main experiment item","yes","CogPsy_Assignment_With_Instruction.osexp","/Users/andrasjoos/Documents/AI Masters/Period 1/Cognitive Psychology/Research project","no","mono","no","18","no","white","no","Professional and Technical Occupations","yes","768","/Users/andrasjoos/Documents/AI Masters/Period 1/Cognitive Psychology/Research project/results/subject-10.csv","fake","Melodramatic Milgram","4.0.5","PurpleDenomination","right","right","NA","space","right","NA","right","4195.308249996742","4598.713999992469","NA","73200.0228749821","1644.2924170114566","NA","4195.308249996742","NA","NA","2","fake_2_50","1024","2","48000","-16","experiment","10","even","17345.623959001387","NA","6321.501124999486","30216.441541997483","NA","14605.325249984162","4499.627166980645","212782.54016698338","NA","NA","213286.49812500225","51361.32479200023","4529.5895419840235","NA","NA","NA","NA","NA","NA","NA","NA","NA","23128.456541977357","NA","213286.61970898975","124564.1312499938","212774.67975000036","NA","51347.15191699797","NA","23127.909167000325","217483.17599997972","NA","17344.871459004935","NA","NA","New experiment","8","84997.5694559107","13","1024"
"57","NA","57","6482","6482","#3d3846","psycho","NA","0","undefined","undefined","0","left","0","0","0","0","0","0","0","13","NA","0","13","0","0","NA","NA","NA","0","NA","NA","NA","NA","NA","0","NA","13","0","13","0","0","0","0","13","0","0","0","NA","Fri Oct 27 22:52:26 2023","50","The main experiment item","yes","CogPsy_Assignment_With_Instruction.osexp","/Users/andrasjoos/Documents/AI Masters/Period 1/Cognitive Psychology/Research project","no","mono","no","18","no","white","no","Professional and Technical Occupations","yes","768","/Users/andrasjoos/Documents/AI Masters/Period 1/Cognitive Psychology/Research project/results/subject-10.csv","fake","Melodramatic Milgram","4.0.5","BadInk","right","right","NA","space","right","NA","right","5759.174832986901","4598.713999992469","NA","73200.0228749821","1644.2924170114566","NA","5759.174832986901","NA","NA","2","fake_2_50","1024","2","48000","-16","experiment","10","even","17345.623959001387","NA","6321.501124999486","30216.441541997483","NA","14605.325249984162","4499.627166980645","217592.12374998606","NA","NA","218096.29791698535","51361.32479200023","4529.5895419840235","NA","NA","NA","NA","NA","NA","NA","NA","NA","23128.456541977357","NA","218096.43679199507","124564.1312499938","217582.06474999315","NA","51347.15191699797","NA","23127.909167000325","223857.29099999298","NA","17344.871459004935","NA","NA","New experiment","8","90756.74428889761","14","1024"
"60","NA","60","6537","6537","#3d3846","psycho","NA","1","undefined","undefined","1","right","0","0","0","0","0","0","0","14","NA","0","14","0","0","NA","NA","NA","0","NA","NA","NA","NA","NA","0","NA","14","0","14","0","0","0","0","14","0","0","0","NA","Fri Oct 27 22:52:26 2023","20","The main experiment item","yes","CogPsy_Assignment_With_Instruction.osexp","/Users/andrasjoos/Documents/AI Masters/Period 1/Cognitive Psychology/Research project","no","mono","no","18","no","white","no","Professional and Technical Occupations","yes","768","/Users/andrasjoos/Documents/AI Masters/Period 1/Cognitive Psychology/Research project/results/subject-10.csv","real","Melodramatic Milgram","4.0.5","genuine","right","right","NA","space","right","NA","right","7309.58791699959","4598.713999992469","NA","73200.0228749821","1644.2924170114566","NA","7309.58791699959","NA","NA","2","real_20","1024","2","48000","-16","experiment","10","even","17345.623959001387","NA","6321.501124999486","30216.441541997483","NA","14605.325249984162","4499.627166980645","223952.81570899533","NA","NA","224459.69016698655","51361.32479200023","4529.5895419840235","NA","NA","NA","NA","NA","NA","NA","NA","NA","23128.456541977357","NA","224459.86149998498","124564.1312499938","223930.21974997828","NA","51347.15191699797","NA","23127.909167000325","231770.93916697777","NA","17344.871459004935","NA","NA","New experiment","9","98066.3322058972","15","1024"
"62","NA","62","7750","7750","#3d3846","psycho","NA","1","undefined","undefined","1","right","0","0","0","0","0","0","0","15","NA","0","15","0","0","NA","NA","NA","0","NA","NA","NA","NA","NA","0","NA","15","0","15","0","0","0","0","15","0","0","0","NA","Fri Oct 27 22:52:26 2023","20","The main experiment item","yes","CogPsy_Assignment_With_Instruction.osexp","/Users/andrasjoos/Documents/AI Masters/Period 1/Cognitive Psychology/Research project","no","mono","no","18","no","white","no","Professional and Technical Occupations","yes","768","/Users/andrasjoos/Documents/AI Masters/Period 1/Cognitive Psychology/Research project/results/subject-10.csv","real","Melodramatic Milgram","4.0.5","genuine","right","right","NA","space","right","NA","right","25938.529625011142","4598.713999992469","NA","73200.0228749821","1644.2924170114566","NA","25938.529625011142","NA","NA","2","real_20","1024","2","48000","-16","experiment","10","even","17345.623959001387","NA","6321.501124999486","30216.441541997483","NA","14605.325249984162","4499.627166980645","231865.77620898606","NA","NA","232371.0767919838","51361.32479200023","4529.5895419840235","NA","NA","NA","NA","NA","NA","NA","NA","NA","23128.456541977357","NA","232371.2139169802","124564.1312499938","231850.83070897963","NA","51347.15191699797","NA","23127.909167000325","258311.42316700425","NA","17344.871459004935","NA","NA","New experiment","10","124004.86183090834","16","1024"
"64","NA","64","7455","7455","#3d3846","psycho","NA","1","undefined","undefined","1","left","0","0","0","0","0","0","0","16","NA","0","16","0","0","NA","NA","NA","0","NA","NA","NA","NA","NA","0","NA","16","0","16","0","0","0","0","16","0","0","0","NA","Fri Oct 27 22:52:26 2023","50","The main experiment item","yes","CogPsy_Assignment_With_Instruction.osexp","/Users/andrasjoos/Documents/AI Masters/Period 1/Cognitive Psychology/Research project","no","mono","no","18","no","white","no","Professional and Technical Occupations","yes","768","/Users/andrasjoos/Documents/AI Masters/Period 1/Cognitive Psychology/Research project/results/subject-10.csv","fake","Melodramatic Milgram","4.0.5","PurpleDenomination","left","right","NA","space","right","NA","left","2740.2746670122724","4598.713999992469","NA","73200.0228749821","1644.2924170114566","NA","2740.2746670122724","NA","NA","2","fake_2_50","1024","2","48000","-16","experiment","10","even","17345.623959001387","NA","6321.501124999486","30216.441541997483","NA","14605.325249984162","4499.627166980645","258429.8366669973","NA","NA","258935.6627499801","51361.32479200023","4529.5895419840235","NA","NA","NA","NA","NA","NA","NA","NA","NA","23128.456541977357","NA","258935.8484169934","124564.1312499938","258394.62962499238","NA","51347.15191699797","NA","23127.909167000325","261677.80241699074","NA","17344.871459004935","NA","NA","New experiment","11","126745.13649792061","17","1024"
"61","NA","61","7180","7180","#3d3846","psycho","NA","0","undefined","undefined","0","left","0","0","0","0","0","0","0","17","NA","0","17","0","0","NA","NA","NA","0","NA","NA","NA","NA","NA","0","NA","17","0","17","0","0","0","0","17","0","0","0","NA","Fri Oct 27 22:52:26 2023","20","The main experiment item","yes","CogPsy_Assignment_With_Instruction.osexp","/Users/andrasjoos/Documents/AI Masters/Period 1/Cognitive Psychology/Research project","no","mono","no","18","no","white","no","Professional and Technical Occupations","yes","768","/Users/andrasjoos/Documents/AI Masters/Period 1/Cognitive Psychology/Research project/results/subject-10.csv","fake","Melodramatic Milgram","4.0.5","NoNumOnThread_BlurryWatermark","right","right","NA","space","right","NA","right","2505.1961669814773","4598.713999992469","NA","73200.0228749821","1644.2924170114566","NA","2505.1961669814773","NA","NA","2","fake_20","1024","2","48000","-16","experiment","10","even","17345.623959001387","NA","6321.501124999486","30216.441541997483","NA","14605.325249984162","4499.627166980645","261799.7483749932","NA","NA","262303.7909169798","51361.32479200023","4529.5895419840235","NA","NA","NA","NA","NA","NA","NA","NA","NA","23128.456541977357","NA","262303.9123750059","124564.1312499938","261792.0722499839","NA","51347.15191699797","NA","23127.909167000325","264810.3131669923","NA","17344.871459004935","NA","NA","New experiment","11","129250.33266490209","18","1024"
"63","NA","63","6961","6961","#3d3846","psycho","NA","1","undefined","undefined","1","left","0","0","0","0","0","0","0","18","NA","0","18","0","0","NA","NA","NA","0","NA","NA","NA","NA","NA","0","NA","18","0","18","0","0","0","0","18","0","0","0","NA","Fri Oct 27 22:52:26 2023","20","The main experiment item","yes","CogPsy_Assignment_With_Instruction.osexp","/Users/andrasjoos/Documents/AI Masters/Period 1/Cognitive Psychology/Research project","no","mono","no","18","no","white","no","Professional and Technical Occupations","yes","768","/Users/andrasjoos/Documents/AI Masters/Period 1/Cognitive Psychology/Research project/results/subject-10.csv","fake","Melodramatic Milgram","4.0.5","BadInk","left","right","NA","space","right","NA","left","3021.290709002642","4598.713999992469","NA","73200.0228749821","1644.2924170114566","NA","3021.290709002642","NA","NA","2","fake_20","1024","2","48000","-16","experiment","10","even","17345.623959001387","NA","6321.501124999486","30216.441541997483","NA","14605.325249984162","4499.627166980645","264911.6104169807","NA","NA","265415.73779200553","51361.32479200023","4529.5895419840235","NA","NA","NA","NA","NA","NA","NA","NA","NA","23128.456541977357","NA","265415.857999993","124564.1312499938","264904.93712498574","NA","51347.15191699797","NA","23127.909167000325","268438.2987089921","NA","17344.871459004935","NA","NA","New experiment","12","132271.62337390473","19","1024"
"65","NA","65","6783","6783","#3d3846","psycho","NA","1","undefined","undefined","1","left","0","0","0","0","0","0","0","19","NA","0","19","0","0","NA","NA","NA","0","NA","NA","NA","NA","NA","0","NA","19","0","19","0","0","0","0","19","0","0","0","NA","Fri Oct 27 22:52:26 2023","20","The main experiment item","yes","CogPsy_Assignment_With_Instruction.osexp","/Users/andrasjoos/Documents/AI Masters/Period 1/Cognitive Psychology/Research project","no","mono","no","18","no","white","no","Professional and Technical Occupations","yes","768","/Users/andrasjoos/Documents/AI Masters/Period 1/Cognitive Psychology/Research project/results/subject-10.csv","fake","Melodramatic Milgram","4.0.5","silver_strip","left","right","NA","space","right","NA","left","3407.681667013094","4598.713999992469","NA","73200.0228749821","1644.2924170114566","NA","3407.681667013094","NA","NA","2","fake_2_20","1024","2","48000","-16","experiment","10","even","17345.623959001387","NA","6321.501124999486","30216.441541997483","NA","14605.325249984162","4499.627166980645","268519.414874987","NA","NA","269023.5361669911","51361.32479200023","4529.5895419840235","NA","NA","NA","NA","NA","NA","NA","NA","NA","23128.456541977357","NA","269023.67191697704","124564.1312499938","268510.63174998853","NA","51347.15191699797","NA","23127.909167000325","272432.79799999436","NA","17344.871459004935","NA","NA","New experiment","13","135679.30504091782","20","1024"
"66","NA","66","6600","6600","#3d3846","psycho","NA","1","undefined","undefined","1","right","0","0","0","0","0","0","0","20","NA","0","20","0","0","NA","NA","NA","0","NA","NA","NA","NA","NA","0","NA","20","0","20","0","0","0","0","20","0","0","0","NA","Fri Oct 27 22:52:26 2023","20","The main experiment item","yes","CogPsy_Assignment_With_Instruction.osexp","/Users/andrasjoos/Documents/AI Masters/Period 1/Cognitive Psychology/Research project","no","mono","no","18","no","white","no","Professional and Technical Occupations","yes","768","/Users/andrasjoos/Documents/AI Masters/Period 1/Cognitive Psychology/Research project/results/subject-10.csv","real","Melodramatic Milgram","4.0.5","photo","right","right","NA","space","right","NA","right","2929.9826670030598","4598.713999992469","NA","73200.0228749821","1644.2924170114566","NA","2929.9826670030598","NA","NA","2","real_20","1024","2","48000","-16","experiment","10","even","17345.623959001387","NA","6321.501124999486","30216.441541997483","NA","14605.325249984162","4499.627166980645","272564.8991249909","NA","NA","273069.18349998887","51361.32479200023","4529.5895419840235","NA","NA","NA","NA","NA","NA","NA","NA","NA","23128.456541977357","NA","273069.31766698835","124564.1312499938","272551.944249979","NA","51347.15191699797","NA","23127.909167000325","276000.57908397866","NA","17344.871459004935","NA","NA","New experiment","14","138609.28770792088","21","1024"
"68","NA","68","6416","6416","#3d3846","psycho","NA","1","undefined","undefined","1","right","0","0","0","0","0","0","0","21","NA","0","21","0","0","NA","NA","NA","0","NA","NA","NA","NA","NA","0","NA","21","0","21","0","0","0","0","21","0","0","0","NA","Fri Oct 27 22:52:26 2023","50","The main experiment item","yes","CogPsy_Assignment_With_Instruction.osexp","/Users/andrasjoos/Documents/AI Masters/Period 1/Cognitive Psychology/Research project","no","mono","no","18","no","white","no","Professional and Technical Occupations","yes","768","/Users/andrasjoos/Documents/AI Masters/Period 1/Cognitive Psychology/Research project/results/subject-10.csv","real","Melodramatic Milgram","4.0.5","photo_2","right","right","NA","space","right","NA","right","2544.465790997492","4598.713999992469","NA","73200.0228749821","1644.2924170114566","NA","2544.465790997492","NA","NA","2","real_50","1024","2","48000","-16","experiment","10","even","17345.623959001387","NA","6321.501124999486","30216.441541997483","NA","14605.325249984162","4499.627166980645","276088.2357499795","NA","NA","276592.49862498837","51361.32479200023","4529.5895419840235","NA","NA","NA","NA","NA","NA","NA","NA","NA","23128.456541977357","NA","276592.64820898534","124564.1312499938","276081.37520900345","NA","51347.15191699797","NA","23127.909167000325","279138.95708398195","NA","17344.871459004935","NA","NA","New experiment","15","141153.75349891838","22","1024"
"69","NA","69","6246","6246","#3d3846","psycho","NA","1","undefined","undefined","1","right","0","0","0","0","0","0","0","22","NA","0","22","0","0","NA","NA","NA","0","NA","NA","NA","NA","NA","0","NA","22","0","22","0","0","0","0","22","0","0","0","NA","Fri Oct 27 22:52:26 2023","20","The main experiment item","yes","CogPsy_Assignment_With_Instruction.osexp","/Users/andrasjoos/Documents/AI Masters/Period 1/Cognitive Psychology/Research project","no","mono","no","18","no","white","no","Professional and Technical Occupations","yes","768","/Users/andrasjoos/Documents/AI Masters/Period 1/Cognitive Psychology/Research project/results/subject-10.csv","real","Melodramatic Milgram","4.0.5","genuine","right","right","NA","space","right","NA","right","2515.3508330113254","4598.713999992469","NA","73200.0228749821","1644.2924170114566","NA","2515.3508330113254","NA","NA","2","real_20","1024","2","48000","-16","experiment","10","even","17345.623959001387","NA","6321.501124999486","30216.441541997483","NA","14605.325249984162","4499.627166980645","279218.68291698047","NA","NA","279723.4816249984","51361.32479200023","4529.5895419840235","NA","NA","NA","NA","NA","NA","NA","NA","NA","23128.456541977357","NA","279723.66820898606","124564.1312499938","279211.52091698605","NA","51347.15191699797","NA","23127.909167000325","282240.26299998513","NA","17344.871459004935","NA","NA","New experiment","16","143669.1043319297","23","1024"
"70","NA","70","6127","6127","#3d3846","psycho","NA","1","undefined","undefined","1","right","0","0","0","0","0","0","0","23","NA","0","23","0","0","NA","NA","NA","0","NA","NA","NA","NA","NA","0","NA","23","0","23","0","0","0","0","23","0","0","0","NA","Fri Oct 27 22:52:26 2023","50","The main experiment item","yes","CogPsy_Assignment_With_Instruction.osexp","/Users/andrasjoos/Documents/AI Masters/Period 1/Cognitive Psychology/Research project","no","mono","no","18","no","white","no","Professional and Technical Occupations","yes","768","/Users/andrasjoos/Documents/AI Masters/Period 1/Cognitive Psychology/Research project/results/subject-10.csv","real","Melodramatic Milgram","4.0.5","photo","right","right","NA","space","right","NA","right","3395.27741598431","4598.713999992469","NA","73200.0228749821","1644.2924170114566","NA","3395.27741598431","NA","NA","2","real_50","1024","2","48000","-16","experiment","10","even","17345.623959001387","NA","6321.501124999486","30216.441541997483","NA","14605.325249984162","4499.627166980645","282338.9779169811","NA","NA","282843.5671250045","51361.32479200023","4529.5895419840235","NA","NA","NA","NA","NA","NA","NA","NA","NA","23128.456541977357","NA","282843.7018340046","124564.1312499938","282331.58979198197","NA","51347.15191699797","NA","23127.909167000325","286240.1641669858","NA","17344.871459004935","NA","NA","New experiment","17","147064.381747914","24","1024"
"72","NA","72","5996","5996","#3d3846","psycho","NA","1","undefined","undefined","1","left","0","0","0","0","0","0","0","24","NA","0","24","0","0","NA","NA","NA","0","NA","NA","NA","NA","NA","0","NA","24","0","24","0","0","0","0","24","0","0","0","NA","Fri Oct 27 22:52:26 2023","20","The main experiment item","yes","CogPsy_Assignment_With_Instruction.osexp","/Users/andrasjoos/Documents/AI Masters/Period 1/Cognitive Psychology/Research project","no","mono","no","18","no","white","no","Professional and Technical Occupations","yes","768","/Users/andrasjoos/Documents/AI Masters/Period 1/Cognitive Psychology/Research project/results/subject-10.csv","fake","Melodramatic Milgram","4.0.5","PurpleDenomination","left","right","NA","space","right","NA","left","2854.0331670083106","4598.713999992469","NA","73200.0228749821","1644.2924170114566","NA","2854.0331670083106","NA","NA","2","fake_20","1024","2","48000","-16","experiment","10","even","17345.623959001387","NA","6321.501124999486","30216.441541997483","NA","14605.325249984162","4499.627166980645","286335.9693749808","NA","NA","286839.90908399574","51361.32479200023","4529.5895419840235","NA","NA","NA","NA","NA","NA","NA","NA","NA","23128.456541977357","NA","286840.0258749898","124564.1312499938","286329.53795898356","NA","51347.15191699797","NA","23127.909167000325","289695.16124998336","NA","17344.871459004935","NA","NA","New experiment","18","149918.41491492232","25","1024"
"73","NA","73","5879","5879","#3d3846","psycho","NA","1","undefined","undefined","1","right","0","0","0","0","0","0","0","25","NA","0","25","0","0","NA","NA","NA","0","NA","NA","NA","NA","NA","0","NA","25","0","25","0","0","0","0","25","0","0","0","NA","Fri Oct 27 22:52:26 2023","50","The main experiment item","yes","CogPsy_Assignment_With_Instruction.osexp","/Users/andrasjoos/Documents/AI Masters/Period 1/Cognitive Psychology/Research project","no","mono","no","18","no","white","no","Professional and Technical Occupations","yes","768","/Users/andrasjoos/Documents/AI Masters/Period 1/Cognitive Psychology/Research project/results/subject-10.csv","real","Melodramatic Milgram","4.0.5","genuine","right","right","NA","space","right","NA","right","2944.909124984406","4598.713999992469","NA","73200.0228749821","1644.2924170114566","NA","2944.909124984406","NA","NA","2","real_20","1024","2","48000","-16","experiment","10","even","17345.623959001387","NA","6321.501124999486","30216.441541997483","NA","14605.325249984162","4499.627166980645","289768.9587499772","NA","NA","290273.01241699024","51361.32479200023","4529.5895419840235","NA","NA","NA","NA","NA","NA","NA","NA","NA","23128.456541977357","NA","290273.13191699795","124564.1312499938","289762.79554198845","NA","51347.15191699797","NA","23127.909167000325","293219.47608399205","NA","17344.871459004935","NA","NA","New experiment","19","152863.32403990673","26","1024"
"70","NA","70","5859","5859","#3d3846","psycho","NA","0","undefined","undefined","0","left","0","0","0","0","0","0","0","26","NA","0","26","0","0","NA","NA","NA","0","NA","NA","NA","NA","NA","0","NA","26","0","26","0","0","0","0","26","0","0","0","NA","Fri Oct 27 22:52:26 2023","50","The main experiment item","yes","CogPsy_Assignment_With_Instruction.osexp","/Users/andrasjoos/Documents/AI Masters/Period 1/Cognitive Psychology/Research project","no","mono","no","18","no","white","no","Professional and Technical Occupations","yes","768","/Users/andrasjoos/Documents/AI Masters/Period 1/Cognitive Psychology/Research project/results/subject-10.csv","fake","Melodramatic Milgram","4.0.5","PurpleDenomination3","right","right","NA","space","right","NA","right","5335.0941670069005","4598.713999992469","NA","73200.0228749821","1644.2924170114566","NA","5335.0941670069005","NA","NA","2","fake_2_50","1024","2","48000","-16","experiment","10","even","17345.623959001387","NA","6321.501124999486","30216.441541997483","NA","14605.325249984162","4499.627166980645","293313.9436249912","NA","NA","293817.84508397686","51361.32479200023","4529.5895419840235","NA","NA","NA","NA","NA","NA","NA","NA","NA","23128.456541977357","NA","293817.9649999947","124564.1312499938","293307.3949999816","NA","51347.15191699797","NA","23127.909167000325","299154.4068339863","NA","17344.871459004935","NA","NA","New experiment","19","158198.41820691363","27","1024"
"71","NA","71","5855","5855","#3d3846","psycho","NA","1","undefined","undefined","1","left","0","0","0","0","0","0","0","27","NA","0","27","0","0","NA","NA","NA","0","NA","NA","NA","NA","NA","0","NA","27","0","27","0","0","0","0","27","0","0","0","NA","Fri Oct 27 22:52:26 2023","20","The main experiment item","yes","CogPsy_Assignment_With_Instruction.osexp","/Users/andrasjoos/Documents/AI Masters/Period 1/Cognitive Psychology/Research project","no","mono","no","18","no","white","no","Professional and Technical Occupations","yes","768","/Users/andrasjoos/Documents/AI Masters/Period 1/Cognitive Psychology/Research project/results/subject-10.csv","fake","Melodramatic Milgram","4.0.5","bottom_left","left","right","NA","space","right","NA","left","5744.040874997154","4598.713999992469","NA","73200.0228749821","1644.2924170114566","NA","5744.040874997154","NA","NA","2","fake_1_20","1024","2","48000","-16","experiment","10","even","17345.623959001387","NA","6321.501124999486","30216.441541997483","NA","14605.325249984162","4499.627166980645","299228.2116249844","NA","NA","299732.63116698945","51361.32479200023","4529.5895419840235","NA","NA","NA","NA","NA","NA","NA","NA","NA","23128.456541977357","NA","299732.7570839843","124564.1312499938","299220.8501249843","NA","51347.15191699797","NA","23127.909167000325","305478.1383340014","NA","17344.871459004935","NA","NA","New experiment","20","163942.45908191078","28","1024"
"72","NA","72","5750","5750","#3d3846","psycho","NA","1","undefined","undefined","1","left","0","0","0","0","0","0","0","28","NA","0","28","0","0","NA","NA","NA","0","NA","NA","NA","NA","NA","0","NA","28","0","28","0","0","0","0","28","0","0","0","NA","Fri Oct 27 22:52:26 2023","20","The main experiment item","yes","CogPsy_Assignment_With_Instruction.osexp","/Users/andrasjoos/Documents/AI Masters/Period 1/Cognitive Psychology/Research project","no","mono","no","18","no","white","no","Professional and Technical Occupations","yes","768","/Users/andrasjoos/Documents/AI Masters/Period 1/Cognitive Psychology/Research project/results/subject-10.csv","fake","Melodramatic Milgram","4.0.5","BadInk","left","right","NA","space","right","NA","left","2824.451708002016","4598.713999992469","NA","73200.0228749821","1644.2924170114566","NA","2824.451708002016","NA","NA","2","fake_20","1024","2","48000","-16","experiment","10","even","17345.623959001387","NA","6321.501124999486","30216.441541997483","NA","14605.325249984162","4499.627166980645","305578.6139169941","NA","NA","306084.6177089843","51361.32479200023","4529.5895419840235","NA","NA","NA","NA","NA","NA","NA","NA","NA","23128.456541977357","NA","306084.92379199015","124564.1312499938","305570.9487919812","NA","51347.15191699797","NA","23127.909167000325","308911.3768749812","NA","17344.871459004935","NA","NA","New experiment","21","166766.9107899128","29","1024"
"73","NA","73","5662","5662","#3d3846","psycho","NA","1","undefined","undefined","1","left","0","0","0","0","0","0","0","29","NA","0","29","0","0","NA","NA","NA","0","NA","NA","NA","NA","NA","0","NA","29","0","29","0","0","0","0","29","0","0","0","NA","Fri Oct 27 22:52:26 2023","50","The main experiment item","yes","CogPsy_Assignment_With_Instruction.osexp","/Users/andrasjoos/Documents/AI Masters/Period 1/Cognitive Psychology/Research project","no","mono","no","18","no","white","no","Professional and Technical Occupations","yes","768","/Users/andrasjoos/Documents/AI Masters/Period 1/Cognitive Psychology/Research project/results/subject-10.csv","fake","Melodramatic Milgram","4.0.5","PurpleDenomination2","left","right","NA","space","right","NA","left","3103.29191602068","4598.713999992469","NA","73200.0228749821","1644.2924170114566","NA","3103.29191602068","NA","NA","2","fake_2_50","1024","2","48000","-16","experiment","10","even","17345.623959001387","NA","6321.501124999486","30216.441541997483","NA","14605.325249984162","4499.627166980645","309007.61908400455","NA","NA","309512.22308399156","51361.32479200023","4529.5895419840235","NA","NA","NA","NA","NA","NA","NA","NA","NA","23128.456541977357","NA","309512.37808397855","124564.1312499938","309000.5327090039","NA","51347.15191699797","NA","23127.909167000325","312616.98254197836","NA","17344.871459004935","NA","NA","New experiment","22","169870.20270593348","30","1024"
"70","NA","70","5517","5517","#3d3846","psycho","NA","0","undefined","undefined","0","left","0","0","0","0","0","0","0","30","NA","0","30","0","0","NA","NA","NA","0","NA","NA","NA","NA","NA","0","NA","30","0","30","0","0","0","0","30","0","0","0","NA","Fri Oct 27 22:52:26 2023","20","The main experiment item","yes","CogPsy_Assignment_With_Instruction.osexp","/Users/andrasjoos/Documents/AI Masters/Period 1/Cognitive Psychology/Research project","no","mono","no","18","no","white","no","Professional and Technical Occupations","yes","768","/Users/andrasjoos/Documents/AI Masters/Period 1/Cognitive Psychology/Research project/results/subject-10.csv","fake","Melodramatic Milgram","4.0.5","DullHologram","right","right","NA","space","right","NA","right","1165.3162089933176","4598.713999992469","NA","73200.0228749821","1644.2924170114566","NA","1165.3162089933176","NA","NA","2","fake_20","1024","2","48000","-16","experiment","10","even","17345.623959001387","NA","6321.501124999486","30216.441541997483","NA","14605.325249984162","4499.627166980645","312712.32429199154","NA","NA","313216.20945900213","51361.32479200023","4529.5895419840235","NA","NA","NA","NA","NA","NA","NA","NA","NA","23128.456541977357","NA","313216.32899998804","124564.1312499938","312704.6210419794","NA","51347.15191699797","NA","23127.909167000325","314382.83966699964","NA","17344.871459004935","NA","NA","New experiment","22","171035.5189149268","31","1024"
"71","NA","71","5430","5430","#3d3846","psycho","NA","1","undefined","undefined","1","left","0","0","0","0","0","0","0","31","NA","0","31","0","0","NA","NA","NA","0","NA","NA","NA","NA","NA","0","NA","31","0","31","0","0","0","0","31","0","0","0","NA","Fri Oct 27 22:52:26 2023","20","The main experiment item","yes","CogPsy_Assignment_With_Instruction.osexp","/Users/andrasjoos/Documents/AI Masters/Period 1/Cognitive Psychology/Research project","no","mono","no","18","no","white","no","Professional and Technical Occupations","yes","768","/Users/andrasjoos/Documents/AI Masters/Period 1/Cognitive Psychology/Research project/results/subject-10.csv","fake","Melodramatic Milgram","4.0.5","NoNumOnThread_BlurryWatermark","left","right","NA","space","right","NA","left","2731.906542001525","4598.713999992469","NA","73200.0228749821","1644.2924170114566","NA","2731.906542001525","NA","NA","2","fake_20","1024","2","48000","-16","experiment","10","even","17345.623959001387","NA","6321.501124999486","30216.441541997483","NA","14605.325249984162","4499.627166980645","314494.6455419995","NA","NA","314998.62112497794","51361.32479200023","4529.5895419840235","NA","NA","NA","NA","NA","NA","NA","NA","NA","23128.456541977357","NA","314998.74154198915","124564.1312499938","314488.6273339798","NA","51347.15191699797","NA","23127.909167000325","317731.9472919917","NA","17344.871459004935","NA","NA","New experiment","23","173767.42545692832","32","1024"
"72","NA","72","5288","5288","#3d3846","psycho","NA","1","undefined","undefined","1","right","0","0","0","0","0","0","0","32","NA","0","32","0","0","NA","NA","NA","0","NA","NA","NA","NA","NA","0","NA","32","0","32","0","0","0","0","32","0","0","0","NA","Fri Oct 27 22:52:26 2023","20","The main experiment item","yes","CogPsy_Assignment_With_Instruction.osexp","/Users/andrasjoos/Documents/AI Masters/Period 1/Cognitive Psychology/Research project","no","mono","no","18","no","white","no","Professional and Technical Occupations","yes","768","/Users/andrasjoos/Documents/AI Masters/Period 1/Cognitive Psychology/Research project/results/subject-10.csv","real","Melodramatic Milgram","4.0.5","genuine","right","right","NA","space","right","NA","right","760.3233330009971","4598.713999992469","NA","73200.0228749821","1644.2924170114566","NA","760.3233330009971","NA","NA","2","real_20","1024","2","48000","-16","experiment","10","even","17345.623959001387","NA","6321.501124999486","30216.441541997483","NA","14605.325249984162","4499.627166980645","317805.1302499953","NA","NA","318309.18220899184","51361.32479200023","4529.5895419840235","NA","NA","NA","NA","NA","NA","NA","NA","NA","23128.456541977357","NA","318309.2989169818","124564.1312499938","317798.39241699665","NA","51347.15191699797","NA","23127.909167000325","319070.73537498945","NA","17344.871459004935","NA","NA","New experiment","24","174527.74878992932","33","1024"
"73","NA","73","5195","5195","#3d3846","psycho","NA","1","undefined","undefined","1","right","0","0","0","0","0","0","0","33","NA","0","33","0","0","NA","NA","NA","0","NA","NA","NA","NA","NA","0","NA","33","0","33","0","0","0","0","33","0","0","0","NA","Fri Oct 27 22:52:26 2023","50","The main experiment item","yes","CogPsy_Assignment_With_Instruction.osexp","/Users/andrasjoos/Documents/AI Masters/Period 1/Cognitive Psychology/Research project","no","mono","no","18","no","white","no","Professional and Technical Occupations","yes","768","/Users/andrasjoos/Documents/AI Masters/Period 1/Cognitive Psychology/Research project/results/subject-10.csv","real","Melodramatic Milgram","4.0.5","genuine","right","right","NA","space","right","NA","right","2111.9073330191895","4598.713999992469","NA","73200.0228749821","1644.2924170114566","NA","2111.9073330191895","NA","NA","2","real_50","1024","2","48000","-16","experiment","10","even","17345.623959001387","NA","6321.501124999486","30216.441541997483","NA","14605.325249984162","4499.627166980645","319141.72674997826","NA","NA","319645.4984169977","51361.32479200023","4529.5895419840235","NA","NA","NA","NA","NA","NA","NA","NA","NA","23128.456541977357","NA","319645.61545898323","124564.1312499938","319137.01558398316","NA","51347.15191699797","NA","23127.909167000325","321758.67233399185","NA","17344.871459004935","NA","NA","New experiment","25","176639.6561229485","34","1024"
"74","NA","74","5110","5110","#3d3846","psycho","NA","1","undefined","undefined","1","right","0","0","0","0","0","0","0","34","NA","0","34","0","0","NA","NA","NA","0","NA","NA","NA","NA","NA","0","NA","34","0","34","0","0","0","0","34","0","0","0","NA","Fri Oct 27 22:52:26 2023","50","The main experiment item","yes","CogPsy_Assignment_With_Instruction.osexp","/Users/andrasjoos/Documents/AI Masters/Period 1/Cognitive Psychology/Research project","no","mono","no","18","no","white","no","Professional and Technical Occupations","yes","768","/Users/andrasjoos/Documents/AI Masters/Period 1/Cognitive Psychology/Research project/results/subject-10.csv","real","Melodramatic Milgram","4.0.5","genuine","right","right","NA","space","right","NA","right","2226.604832976591","4598.713999992469","NA","73200.0228749821","1644.2924170114566","NA","2226.604832976591","NA","NA","2","real_50","1024","2","48000","-16","experiment","10","even","17345.623959001387","NA","6321.501124999486","30216.441541997483","NA","14605.325249984162","4499.627166980645","321829.9557089922","NA","NA","322333.87508400483","51361.32479200023","4529.5895419840235","NA","NA","NA","NA","NA","NA","NA","NA","NA","23128.456541977357","NA","322333.9898340055","124564.1312499938","321824.01904198923","NA","51347.15191699797","NA","23127.909167000325","324561.97483398137","NA","17344.871459004935","NA","NA","New experiment","26","178866.2609559251","35","1024"
"75","NA","75","4998","4998","#3d3846","psycho","NA","1","undefined","undefined","1","left","0","0","0","0","0","0","0","35","NA","0","35","0","0","NA","NA","NA","0","NA","NA","NA","NA","NA","0","NA","35","0","35","0","0","0","0","35","0","0","0","NA","Fri Oct 27 22:52:26 2023","50","The main experiment item","yes","CogPsy_Assignment_With_Instruction.osexp","/Users/andrasjoos/Documents/AI Masters/Period 1/Cognitive Psychology/Research project","no","mono","no","18","no","white","no","Professional and Technical Occupations","yes","768","/Users/andrasjoos/Documents/AI Masters/Period 1/Cognitive Psychology/Research project/results/subject-10.csv","fake","Melodramatic Milgram","4.0.5","silver_strip","left","right","NA","space","right","NA","left","1076.4298749854788","4598.713999992469","NA","73200.0228749821","1644.2924170114566","NA","1076.4298749854788","NA","NA","2","fake_2_50","1024","2","48000","-16","experiment","10","even","17345.623959001387","NA","6321.501124999486","30216.441541997483","NA","14605.325249984162","4499.627166980645","324634.9008749821","NA","NA","325138.9535419876","51361.32479200023","4529.5895419840235","NA","NA","NA","NA","NA","NA","NA","NA","NA","23128.456541977357","NA","325139.07320899307","124564.1312499938","324628.6534999963","NA","51347.15191699797","NA","23127.909167000325","326216.67945900117","NA","17344.871459004935","NA","NA","New experiment","27","179942.69083091058","36","1024"
"75","NA","75","4902","4902","#3d3846","psycho","NA","1","undefined","undefined","1","right","0","0","0","0","0","0","0","36","NA","0","36","0","0","NA","NA","NA","0","NA","NA","NA","NA","NA","0","NA","36","0","36","0","0","0","0","36","0","0","0","NA","Fri Oct 27 22:52:26 2023","20","The main experiment item","yes","CogPsy_Assignment_With_Instruction.osexp","/Users/andrasjoos/Documents/AI Masters/Period 1/Cognitive Psychology/Research project","no","mono","no","18","no","white","no","Professional and Technical Occupations","yes","768","/Users/andrasjoos/Documents/AI Masters/Period 1/Cognitive Psychology/Research project/results/subject-10.csv","real","Melodramatic Milgram","4.0.5","photo","right","right","NA","space","right","NA","right","1443.9467079937458","4598.713999992469","NA","73200.0228749821","1644.2924170114566","NA","1443.9467079937458","NA","NA","2","real_20","1024","2","48000","-16","experiment","10","even","17345.623959001387","NA","6321.501124999486","30216.441541997483","NA","14605.325249984162","4499.627166980645","326327.68516699434","NA","NA","326831.54908398865","51361.32479200023","4529.5895419840235","NA","NA","NA","NA","NA","NA","NA","NA","NA","23128.456541977357","NA","326831.6713339882","124564.1312499938","326322.888374998","NA","51347.15191699797","NA","23127.909167000325","328276.80479199626","NA","17344.871459004935","NA","NA","New experiment","28","181386.63753890432","37","1024"
"76","NA","76","4851","4851","#3d3846","psycho","NA","1","undefined","undefined","1","right","0","0","0","0","0","0","0","37","NA","0","37","0","0","NA","NA","NA","0","NA","NA","NA","NA","NA","0","NA","37","0","37","0","0","0","0","37","0","0","0","NA","Fri Oct 27 22:52:26 2023","50","The main experiment item","yes","CogPsy_Assignment_With_Instruction.osexp","/Users/andrasjoos/Documents/AI Masters/Period 1/Cognitive Psychology/Research project","no","mono","no","18","no","white","no","Professional and Technical Occupations","yes","768","/Users/andrasjoos/Documents/AI Masters/Period 1/Cognitive Psychology/Research project/results/subject-10.csv","real","Melodramatic Milgram","4.0.5","photo_2","right","right","NA","space","right","NA","right","2951.556750020245","4598.713999992469","NA","73200.0228749821","1644.2924170114566","NA","2951.556750020245","NA","NA","2","real_50","1024","2","48000","-16","experiment","10","even","17345.623959001387","NA","6321.501124999486","30216.441541997483","NA","14605.325249984162","4499.627166980645","328362.221916992","NA","NA","328866.1589999974","51361.32479200023","4529.5895419840235","NA","NA","NA","NA","NA","NA","NA","NA","NA","23128.456541977357","NA","328866.2759589788","124564.1312499938","328356.4876249875","NA","51347.15191699797","NA","23127.909167000325","331818.9235839818","NA","17344.871459004935","NA","NA","New experiment","29","184338.19428892457","38","1024"
"76","NA","76","4759","4759","#3d3846","psycho","NA","1","undefined","undefined","1","right","0","0","0","0","0","0","0","38","NA","0","38","0","0","NA","NA","NA","0","NA","NA","NA","NA","NA","0","NA","38","0","38","0","0","0","0","38","0","0","0","NA","Fri Oct 27 22:52:26 2023","50","The main experiment item","yes","CogPsy_Assignment_With_Instruction.osexp","/Users/andrasjoos/Documents/AI Masters/Period 1/Cognitive Psychology/Research project","no","mono","no","18","no","white","no","Professional and Technical Occupations","yes","768","/Users/andrasjoos/Documents/AI Masters/Period 1/Cognitive Psychology/Research project/results/subject-10.csv","real","Melodramatic Milgram","4.0.5","photo_2","right","right","NA","space","right","NA","right","1289.8371249902993","4598.713999992469","NA","73200.0228749821","1644.2924170114566","NA","1289.8371249902993","NA","NA","2","real_50","1024","2","48000","-16","experiment","10","even","17345.623959001387","NA","6321.501124999486","30216.441541997483","NA","14605.325249984162","4499.627166980645","331905.7367089845","NA","NA","332409.5803749806","51361.32479200023","4529.5895419840235","NA","NA","NA","NA","NA","NA","NA","NA","NA","23128.456541977357","NA","332409.71212499426","124564.1312499938","331899.198041996","NA","51347.15191699797","NA","23127.909167000325","333700.877958996","NA","17344.871459004935","NA","NA","New experiment","30","185628.03141391487","39","1024"
"77","NA","77","4660","4660","#3d3846","psycho","NA","1","undefined","undefined","1","left","0","0","0","0","0","0","0","39","NA","0","39","0","0","NA","NA","NA","0","NA","NA","NA","NA","NA","0","NA","39","0","39","0","0","0","0","39","0","0","0","NA","Fri Oct 27 22:52:26 2023","20","The main experiment item","yes","CogPsy_Assignment_With_Instruction.osexp","/Users/andrasjoos/Documents/AI Masters/Period 1/Cognitive Psychology/Research project","no","mono","no","18","no","white","no","Professional and Technical Occupations","yes","768","/Users/andrasjoos/Documents/AI Masters/Period 1/Cognitive Psychology/Research project/results/subject-10.csv","fake","Melodramatic Milgram","4.0.5","BadInk2","left","right","NA","space","right","NA","left","810.5532499903347","4598.713999992469","NA","73200.0228749821","1644.2924170114566","NA","810.5532499903347","NA","NA","2","fake_20","1024","2","48000","-16","experiment","10","even","17345.623959001387","NA","6321.501124999486","30216.441541997483","NA","14605.325249984162","4499.627166980645","333804.3257499812","NA","NA","334307.9242919921","51361.32479200023","4529.5895419840235","NA","NA","NA","NA","NA","NA","NA","NA","NA","23128.456541977357","NA","334308.04120900575","124564.1312499938","333797.7054170042","NA","51347.15191699797","NA","23127.909167000325","335119.8213750031","NA","17344.871459004935","NA","NA","New experiment","31","186438.5846639052","40","1024"
"75","NA","75","4598","4598","#3d3846","psycho","NA","0","undefined","undefined","0","right","0","0","0","0","0","0","0","40","NA","0","40","0","0","NA","NA","NA","0","NA","NA","NA","NA","NA","0","NA","40","0","40","0","0","0","0","40","0","0","0","NA","Fri Oct 27 22:52:26 2023","50","The main experiment item","yes","CogPsy_Assignment_With_Instruction.osexp","/Users/andrasjoos/Documents/AI Masters/Period 1/Cognitive Psychology/Research project","no","mono","no","18","no","white","no","Professional and Technical Occupations","yes","768","/Users/andrasjoos/Documents/AI Masters/Period 1/Cognitive Psychology/Research project/results/subject-10.csv","real","Melodramatic Milgram","4.0.5","photo","left","right","NA","space","right","NA","left","2087.7860419859644","4598.713999992469","NA","73200.0228749821","1644.2924170114566","NA","2087.7860419859644","NA","NA","2","real_50","1024","2","48000","-16","experiment","10","even","17345.623959001387","NA","6321.501124999486","30216.441541997483","NA","14605.325249984162","4499.627166980645","335213.6494589795","NA","NA","335717.782666994","51361.32479200023","4529.5895419840235","NA","NA","NA","NA","NA","NA","NA","NA","NA","23128.456541977357","NA","335717.9049169936","124564.1312499938","335208.6788750021","NA","51347.15191699797","NA","23127.909167000325","337806.99216699577","NA","17344.871459004935","NA","NA","New experiment","31","188526.37070589117","41","1024"
"76","NA","76","4517","4517","#3d3846","psycho","NA","1","undefined","undefined","1","left","0","0","0","0","0","0","0","41","NA","0","41","0","0","NA","NA","NA","0","NA","NA","NA","NA","NA","0","NA","41","0","41","0","0","0","0","41","0","0","0","NA","Fri Oct 27 22:52:26 2023","50","The main experiment item","yes","CogPsy_Assignment_With_Instruction.osexp","/Users/andrasjoos/Documents/AI Masters/Period 1/Cognitive Psychology/Research project","no","mono","no","18","no","white","no","Professional and Technical Occupations","yes","768","/Users/andrasjoos/Documents/AI Masters/Period 1/Cognitive Psychology/Research project/results/subject-10.csv","fake","Melodramatic Milgram","4.0.5","PurpleDenomination2","left","right","NA","space","right","NA","left","1208.9572080003563","4598.713999992469","NA","73200.0228749821","1644.2924170114566","NA","1208.9572080003563","NA","NA","2","fake_2_50","1024","2","48000","-16","experiment","10","even","17345.623959001387","NA","6321.501124999486","30216.441541997483","NA","14605.325249984162","4499.627166980645","337900.7096249843","NA","NA","338404.5824589848","51361.32479200023","4529.5895419840235","NA","NA","NA","NA","NA","NA","NA","NA","NA","23128.456541977357","NA","338404.6980419953","124564.1312499938","337894.3009589857","NA","51347.15191699797","NA","23127.909167000325","339614.90387498634","NA","17344.871459004935","NA","NA","New experiment","32","189735.32791389152","42","1024"
"76","NA","76","4563","4563","#3d3846","psycho","NA","1","undefined","undefined","1","left","0","0","0","0","0","0","0","42","NA","0","42","0","0","NA","NA","NA","0","NA","NA","NA","NA","NA","0","NA","42","0","42","0","0","0","0","42","0","0","0","NA","Fri Oct 27 22:52:26 2023","50","The main experiment item","yes","CogPsy_Assignment_With_Instruction.osexp","/Users/andrasjoos/Documents/AI Masters/Period 1/Cognitive Psychology/Research project","no","mono","no","18","no","white","no","Professional and Technical Occupations","yes","768","/Users/andrasjoos/Documents/AI Masters/Period 1/Cognitive Psychology/Research project/results/subject-10.csv","fake","Melodramatic Milgram","4.0.5","GreyDenomination","left","right","NA","space","right","NA","left","6502.648083987879","4598.713999992469","NA","73200.0228749821","1644.2924170114566","NA","6502.648083987879","NA","NA","2","fake_2_50","1024","2","48000","-16","experiment","10","even","17345.623959001387","NA","6321.501124999486","30216.441541997483","NA","14605.325249984162","4499.627166980645","339710.50374998595","NA","NA","340214.48445899296","51361.32479200023","4529.5895419840235","NA","NA","NA","NA","NA","NA","NA","NA","NA","23128.456541977357","NA","340214.60174999083","124564.1312499938","339703.2670000044","NA","51347.15191699797","NA","23127.909167000325","346718.46858400386","NA","17344.871459004935","NA","NA","New experiment","33","196237.9759978794","43","1024"
"77","NA","77","4476","4476","#3d3846","psycho","NA","1","undefined","undefined","1","left","0","0","0","0","0","0","0","43","NA","0","43","0","0","NA","NA","NA","0","NA","NA","NA","NA","NA","0","NA","43","0","43","0","0","0","0","43","0","0","0","NA","Fri Oct 27 22:52:26 2023","20","The main experiment item","yes","CogPsy_Assignment_With_Instruction.osexp","/Users/andrasjoos/Documents/AI Masters/Period 1/Cognitive Psychology/Research project","no","mono","no","18","no","white","no","Professional and Technical Occupations","yes","768","/Users/andrasjoos/Documents/AI Masters/Period 1/Cognitive Psychology/Research project/results/subject-10.csv","fake","Melodramatic Milgram","4.0.5","BrownDenomination","left","right","NA","space","right","NA","left","710.0323750055395","4598.713999992469","NA","73200.0228749821","1644.2924170114566","NA","710.0323750055395","NA","NA","2","fake_20","1024","2","48000","-16","experiment","10","even","17345.623959001387","NA","6321.501124999486","30216.441541997483","NA","14605.325249984162","4499.627166980645","346812.40049999906","NA","NA","347316.47520899423","51361.32479200023","4529.5895419840235","NA","NA","NA","NA","NA","NA","NA","NA","NA","23128.456541977357","NA","347316.59545897855","124564.1312499938","346805.72587499046","NA","51347.15191699797","NA","23127.909167000325","348027.75929198833","NA","17344.871459004935","NA","NA","New experiment","34","196948.00837288494","44","1024"
"77","NA","77","4472","4472","#3d3846","psycho","NA","1","undefined","undefined","1","right","0","0","0","0","0","0","0","44","NA","0","44","0","0","NA","NA","NA","0","NA","NA","NA","NA","NA","0","NA","44","0","44","0","0","0","0","44","0","0","0","NA","Fri Oct 27 22:52:26 2023","50","The main experiment item","yes","CogPsy_Assignment_With_Instruction.osexp","/Users/andrasjoos/Documents/AI Masters/Period 1/Cognitive Psychology/Research project","no","mono","no","18","no","white","no","Professional and Technical Occupations","yes","768","/Users/andrasjoos/Documents/AI Masters/Period 1/Cognitive Psychology/Research project/results/subject-10.csv","real","Melodramatic Milgram","4.0.5","photo_2","right","right","NA","space","right","NA","right","4302.655709005194","4598.713999992469","NA","73200.0228749821","1644.2924170114566","NA","4302.655709005194","NA","NA","2","real_50","1024","2","48000","-16","experiment","10","even","17345.623959001387","NA","6321.501124999486","30216.441541997483","NA","14605.325249984162","4499.627166980645","348111.2940419989","NA","NA","348615.0814589928","51361.32479200023","4529.5895419840235","NA","NA","NA","NA","NA","NA","NA","NA","NA","23128.456541977357","NA","348615.1947499893","124564.1312499938","348106.4687919861","NA","51347.15191699797","NA","23127.909167000325","352919.1009589995","NA","17344.871459004935","NA","NA","New experiment","35","201250.66408189014","45","1024"
"78","NA","78","4396","4396","#3d3846","psycho","NA","1","undefined","undefined","1","left","0","0","0","0","0","0","0","45","NA","0","45","0","0","NA","NA","NA","0","NA","NA","NA","NA","NA","0","NA","45","0","45","0","0","0","0","45","0","0","0","NA","Fri Oct 27 22:52:26 2023","20","The main experiment item","yes","CogPsy_Assignment_With_Instruction.osexp","/Users/andrasjoos/Documents/AI Masters/Period 1/Cognitive Psychology/Research project","no","mono","no","18","no","white","no","Professional and Technical Occupations","yes","768","/Users/andrasjoos/Documents/AI Masters/Period 1/Cognitive Psychology/Research project/results/subject-10.csv","fake","Melodramatic Milgram","4.0.5","BrownDenomination","left","right","NA","space","right","NA","left","992.9029589984566","4598.713999992469","NA","73200.0228749821","1644.2924170114566","NA","992.9029589984566","NA","NA","2","fake_20","1024","2","48000","-16","experiment","10","even","17345.623959001387","NA","6321.501124999486","30216.441541997483","NA","14605.325249984162","4499.627166980645","353011.7797089915","NA","NA","353515.5662499892","51361.32479200023","4529.5895419840235","NA","NA","NA","NA","NA","NA","NA","NA","NA","23128.456541977357","NA","353515.6813749927","124564.1312499938","353005.13029200374","NA","51347.15191699797","NA","23127.909167000325","354509.73083399003","NA","17344.871459004935","NA","NA","New experiment","36","202243.5670408886","46","1024"
"78","NA","78","4379","4379","#3d3846","psycho","NA","1","undefined","undefined","1","left","0","0","0","0","0","0","0","46","NA","0","46","0","0","NA","NA","NA","0","NA","NA","NA","NA","NA","0","NA","46","0","46","0","0","0","0","46","0","0","0","NA","Fri Oct 27 22:52:26 2023","20","The main experiment item","yes","CogPsy_Assignment_With_Instruction.osexp","/Users/andrasjoos/Documents/AI Masters/Period 1/Cognitive Psychology/Research project","no","mono","no","18","no","white","no","Professional and Technical Occupations","yes","768","/Users/andrasjoos/Documents/AI Masters/Period 1/Cognitive Psychology/Research project/results/subject-10.csv","fake","Melodramatic Milgram","4.0.5","DullHologram","left","right","NA","space","right","NA","left","3613.6872909846716","4598.713999992469","NA","73200.0228749821","1644.2924170114566","NA","3613.6872909846716","NA","NA","2","fake_20","1024","2","48000","-16","experiment","10","even","17345.623959001387","NA","6321.501124999486","30216.441541997483","NA","14605.325249984162","4499.627166980645","354601.7187089892","NA","NA","355105.5819999892","51361.32479200023","4529.5895419840235","NA","NA","NA","NA","NA","NA","NA","NA","NA","23128.456541977357","NA","355105.69933400257","124564.1312499938","354597.0274169813","NA","51347.15191699797","NA","23127.909167000325","358720.74620900094","NA","17344.871459004935","NA","NA","New experiment","37","205857.25433187326","47","1024"
"79","NA","79","4390","4390","#3d3846","psycho","NA","1","undefined","undefined","1","left","0","0","0","0","0","0","0","47","NA","0","47","0","0","NA","NA","NA","0","NA","NA","NA","NA","NA","0","NA","47","0","47","0","0","0","0","47","0","0","0","NA","Fri Oct 27 22:52:26 2023","20","The main experiment item","yes","CogPsy_Assignment_With_Instruction.osexp","/Users/andrasjoos/Documents/AI Masters/Period 1/Cognitive Psychology/Research project","no","mono","no","18","no","white","no","Professional and Technical Occupations","yes","768","/Users/andrasjoos/Documents/AI Masters/Period 1/Cognitive Psychology/Research project/results/subject-10.csv","fake","Melodramatic Milgram","4.0.5","DullHologram2","left","right","NA","space","right","NA","left","4897.379083005944","4598.713999992469","NA","73200.0228749821","1644.2924170114566","NA","4897.379083005944","NA","NA","2","fake_20","1024","2","48000","-16","experiment","10","even","17345.623959001387","NA","6321.501124999486","30216.441541997483","NA","14605.325249984162","4499.627166980645","358816.19037498604","NA","NA","359320.24825000553","51361.32479200023","4529.5895419840235","NA","NA","NA","NA","NA","NA","NA","NA","NA","23128.456541977357","NA","359320.36920898827","124564.1312499938","358808.18270897726","NA","51347.15191699797","NA","23127.909167000325","364219.0186249791","NA","17344.871459004935","NA","NA","New experiment","38","210754.6334148792","48","1024"
"79","NA","79","4337","4337","#3d3846","psycho","NA","1","undefined","undefined","1","left","0","0","0","0","0","0","0","48","NA","0","48","0","0","NA","NA","NA","0","NA","NA","NA","NA","NA","0","NA","48","0","48","0","0","0","0","48","0","0","0","NA","Fri Oct 27 22:52:26 2023","50","The main experiment item","yes","CogPsy_Assignment_With_Instruction.osexp","/Users/andrasjoos/Documents/AI Masters/Period 1/Cognitive Psychology/Research project","no","mono","no","18","no","white","no","Professional and Technical Occupations","yes","768","/Users/andrasjoos/Documents/AI Masters/Period 1/Cognitive Psychology/Research project/results/subject-10.csv","fake","Melodramatic Milgram","4.0.5","PurpleDenomination3","left","right","NA","space","right","NA","left","1806.2079589872155","4598.713999992469","NA","73200.0228749821","1644.2924170114566","NA","1806.2079589872155","NA","NA","2","fake_2_50","1024","2","48000","-16","experiment","10","even","17345.623959001387","NA","6321.501124999486","30216.441541997483","NA","14605.325249984162","4499.627166980645","364313.3204589831","NA","NA","364817.32483400265","51361.32479200023","4529.5895419840235","NA","NA","NA","NA","NA","NA","NA","NA","NA","23128.456541977357","NA","364817.4419999996","124564.1312499938","364306.69491700246","NA","51347.15191699797","NA","23127.909167000325","366625.03033399116","NA","17344.871459004935","NA","NA","New experiment","39","212560.84137386642","49","1024"
"80","NA","80","4275","4275","#3d3846","psycho","NA","1","undefined","undefined","1","left","0","0","0","0","0","0","0","49","NA","0","49","0","0","NA","NA","NA","0","NA","NA","NA","NA","NA","0","NA","49","0","49","0","0","0","0","49","0","0","0","NA","Fri Oct 27 22:52:26 2023","20","The main experiment item","yes","CogPsy_Assignment_With_Instruction.osexp","/Users/andrasjoos/Documents/AI Masters/Period 1/Cognitive Psychology/Research project","no","mono","no","18","no","white","no","Professional and Technical Occupations","yes","768","/Users/andrasjoos/Documents/AI Masters/Period 1/Cognitive Psychology/Research project/results/subject-10.csv","fake","Melodramatic Milgram","4.0.5","bottom_left","left","right","NA","space","right","NA","left","1196.0452920175157","4598.713999992469","NA","73200.0228749821","1644.2924170114566","NA","1196.0452920175157","NA","NA","2","fake_1_20","1024","2","48000","-16","experiment","10","even","17345.623959001387","NA","6321.501124999486","30216.441541997483","NA","14605.325249984162","4499.627166980645","366698.68629198754","NA","NA","367202.55141699454","51361.32479200023","4529.5895419840235","NA","NA","NA","NA","NA","NA","NA","NA","NA","23128.456541977357","NA","367202.69104198087","124564.1312499938","366692.4044589978","NA","51347.15191699797","NA","23127.909167000325","368399.9579169904","NA","17344.871459004935","NA","NA","New experiment","40","213756.88666588394","50","1024"
"80","NA","80","4244","4244","#3d3846","psycho","NA","1","undefined","undefined","1","left","0","0","0","0","0","0","0","50","NA","0","50","0","0","NA","NA","NA","0","NA","NA","NA","NA","NA","0","NA","50","0","50","0","0","0","0","50","0","0","0","NA","Fri Oct 27 22:52:26 2023","50","The main experiment item","yes","CogPsy_Assignment_With_Instruction.osexp","/Users/andrasjoos/Documents/AI Masters/Period 1/Cognitive Psychology/Research project","no","mono","no","18","no","white","no","Professional and Technical Occupations","yes","768","/Users/andrasjoos/Documents/AI Masters/Period 1/Cognitive Psychology/Research project/results/subject-10.csv","fake","Melodramatic Milgram","4.0.5","NoNumOnThread_BlurryWatermark","left","right","NA","space","right","NA","left","2709.863415977452","4598.713999992469","NA","73200.0228749821","1644.2924170114566","NA","2709.863415977452","NA","NA","2","fake_2_50","1024","2","48000","-16","experiment","10","even","17345.623959001387","NA","6321.501124999486","30216.441541997483","NA","14605.325249984162","4499.627166980645","368493.48191698664","NA","NA","368997.6080839988","51361.32479200023","4529.5895419840235","NA","NA","NA","NA","NA","NA","NA","NA","NA","23128.456541977357","NA","368997.7268340008","124564.1312499938","368487.24124999717","NA","51347.15191699797","NA","23127.909167000325","371709.55374999903","NA","17344.871459004935","NA","NA","New experiment","41","216466.7500818614","51","1024"
"78","NA","78","4256","4256","#3d3846","psycho","NA","0","undefined","undefined","0","left","0","0","0","0","0","0","0","51","NA","0","51","0","0","NA","NA","NA","0","NA","NA","NA","NA","NA","0","NA","51","0","51","0","0","0","0","51","0","0","0","NA","Fri Oct 27 22:52:26 2023","50","The main experiment item","yes","CogPsy_Assignment_With_Instruction.osexp","/Users/andrasjoos/Documents/AI Masters/Period 1/Cognitive Psychology/Research project","no","mono","no","18","no","white","no","Professional and Technical Occupations","yes","768","/Users/andrasjoos/Documents/AI Masters/Period 1/Cognitive Psychology/Research project/results/subject-10.csv","fake","Melodramatic Milgram","4.0.5","BadInk","right","right","NA","space","right","NA","right","4851.577791996533","4598.713999992469","NA","73200.0228749821","1644.2924170114566","NA","4851.577791996533","NA","NA","2","fake_2_50","1024","2","48000","-16","experiment","10","even","17345.623959001387","NA","6321.501124999486","30216.441541997483","NA","14605.325249984162","4499.627166980645","371822.1065419784","NA","NA","372326.16979198065","51361.32479200023","4529.5895419840235","NA","NA","NA","NA","NA","NA","NA","NA","NA","23128.456541977357","NA","372326.32362499135","124564.1312499938","371814.50304199825","NA","51347.15191699797","NA","23127.909167000325","377179.265291983","NA","17344.871459004935","NA","NA","New experiment","41","221318.32787385792","52","1024"
"79","NA","79","4255","4255","#3d3846","psycho","NA","1","undefined","undefined","1","left","0","0","0","0","0","0","0","52","NA","0","52","0","0","NA","NA","NA","0","NA","NA","NA","NA","NA","0","NA","52","0","52","0","0","0","0","52","0","0","0","NA","Fri Oct 27 22:52:26 2023","50","The main experiment item","yes","CogPsy_Assignment_With_Instruction.osexp","/Users/andrasjoos/Documents/AI Masters/Period 1/Cognitive Psychology/Research project","no","mono","no","18","no","white","no","Professional and Technical Occupations","yes","768","/Users/andrasjoos/Documents/AI Masters/Period 1/Cognitive Psychology/Research project/results/subject-10.csv","fake","Melodramatic Milgram","4.0.5","GreyDenomination","left","right","NA","space","right","NA","left","4224.557082983665","4598.713999992469","NA","73200.0228749821","1644.2924170114566","NA","4224.557082983665","NA","NA","2","fake_2_50","1024","2","48000","-16","experiment","10","even","17345.623959001387","NA","6321.501124999486","30216.441541997483","NA","14605.325249984162","4499.627166980645","377276.9155839924","NA","NA","377780.55724999285","51361.32479200023","4529.5895419840235","NA","NA","NA","NA","NA","NA","NA","NA","NA","23128.456541977357","NA","377780.6762919936","124564.1312499938","377269.2391249875","NA","51347.15191699797","NA","23127.909167000325","382006.52041699504","NA","17344.871459004935","NA","NA","New experiment","42","225542.8849568416","53","1024"
"79","NA","79","4199","4199","#3d3846","psycho","NA","1","undefined","undefined","1","left","0","0","0","0","0","0","0","53","NA","0","53","0","0","NA","NA","NA","0","NA","NA","NA","NA","NA","0","NA","53","0","53","0","0","0","0","53","0","0","0","NA","Fri Oct 27 22:52:26 2023","50","The main experiment item","yes","CogPsy_Assignment_With_Instruction.osexp","/Users/andrasjoos/Documents/AI Masters/Period 1/Cognitive Psychology/Research project","no","mono","no","18","no","white","no","Professional and Technical Occupations","yes","768","/Users/andrasjoos/Documents/AI Masters/Period 1/Cognitive Psychology/Research project/results/subject-10.csv","fake","Melodramatic Milgram","4.0.5","bottom_left","left","right","NA","space","right","NA","left","1249.4773750077002","4598.713999992469","NA","73200.0228749821","1644.2924170114566","NA","1249.4773750077002","NA","NA","2","fake_1_50","1024","2","48000","-16","experiment","10","even","17345.623959001387","NA","6321.501124999486","30216.441541997483","NA","14605.325249984162","4499.627166980645","382079.05912498245","NA","NA","382582.7846250031","51361.32479200023","4529.5895419840235","NA","NA","NA","NA","NA","NA","NA","NA","NA","23128.456541977357","NA","382582.90633399156","124564.1312499938","382071.7335419904","NA","51347.15191699797","NA","23127.909167000325","383833.6263340025","NA","17344.871459004935","NA","NA","New experiment","43","226792.3623318493","54","1024"
"79","NA","79","4199","4199","#3d3846","psycho","NA","1","undefined","undefined","1","left","0","0","0","0","0","0","0","53","NA","0","53","0","0","NA","NA","NA","0","NA","NA","NA","NA","NA","0","NA","53","0","53","0","0","0","0","53","0","0","0","NA","Fri Oct 27 22:52:26 2023","50","The main experiment item","yes","CogPsy_Assignment_With_Instruction.osexp","/Users/andrasjoos/Documents/AI Masters/Period 1/Cognitive Psychology/Research project","no","mono","no","18","no","white","no","color of the number on left, hologram, ink crispiness","yes","768","/Users/andrasjoos/Documents/AI Masters/Period 1/Cognitive Psychology/Research project/results/subject-10.csv","fake","Melodramatic Milgram","4.0.5","bottom_left","color of the number on left, hologram, ink crispiness","right","NA","space","right","NA","left","1249.4773750077002","4598.713999992469","NA","73200.0228749821","1644.2924170114566","NA","1249.4773750077002","NA","NA","2","fake_1_50","1024","2","48000","-16","experiment","10","even","17345.623959001387","NA","6321.501124999486","30216.441541997483","NA","14605.325249984162","4499.627166980645","382079.05912498245","NA","NA","382582.7846250031","51361.32479200023","4529.5895419840235","NA","NA","NA","422514.3420419772","NA","NA","NA","NA","NA","23128.456541977357","NA","382582.90633399156","124564.1312499938","382071.7335419904","NA","51347.15191699797","383874.8712919769","23127.909167000325","383833.6263340025","NA","17344.871459004935","NA","NA","New experiment","43","226792.3623318493","54","1024"
"79","NA","79","4199","4199","#3d3846","psycho","NA","1","undefined","undefined","1","left","0","0","0","0","0","0","0","53","NA","0","53","0","0","NA","NA","NA","0","NA","NA","NA","NA","NA","0","NA","53","0","53","0","0","0","0","53","0","0","0","NA","Fri Oct 27 22:52:26 2023","50","The main experiment item","yes","CogPsy_Assignment_With_Instruction.osexp","/Users/andrasjoos/Documents/AI Masters/Period 1/Cognitive Psychology/Research project","no","mono","no","18","no","white","no","Ok","yes","768","/Users/andrasjoos/Documents/AI Masters/Period 1/Cognitive Psychology/Research project/results/subject-10.csv","fake","Melodramatic Milgram","4.0.5","bottom_left","Silver strip (security thread);Colors of text;Ink quality","right","NA","space","right","NA","left","1249.4773750077002","4598.713999992469","NA","73200.0228749821","1644.2924170114566","NA","1249.4773750077002","NA","NA","2","fake_1_50","1024","2","48000","-16","experiment","10","even","17345.623959001387","NA","6321.501124999486","30216.441541997483","NA","14605.325249984162","4499.627166980645","382079.05912498245","NA","NA","382582.7846250031","51361.32479200023","4529.5895419840235","NA","NA","NA","422514.3420419772","NA","NA","NA","NA","NA","23128.456541977357","NA","382582.90633399156","124564.1312499938","382071.7335419904","NA","51347.15191699797","383874.8712919769","23127.909167000325","383833.6263340025","NA","17344.871459004935","455614.5797089848","NA","New experiment","43","226792.3623318493","54","1024"
