"acc","accept_status","accuracy","average_response_time","avg_rt","background","canvas_backend","checkbox_status","correct","correct_consent_sketchpad","correct_instruction_sketchpad","correct_new_keyboard_response","correct_response","count_age_form","count_checkbox_security_form","count_consent_sketchpad","count_country_logger","count_eurozone_form","count_eurozone_logger","count_experiment","count_fixation_dots","count_getting_started","count_goodbye_sketchpad","count_images_sketchpad","count_information_display_sketchpad","count_instruction_sketchpad","count_new_1_form_base","count_new_1_form_text_input","count_new_1_sketchpad","count_new_2_logger","count_new_4_form_multiple_choice","count_new_form_base","count_new_form_consent","count_new_form_multiple_choice","count_new_form_text_display","count_new_form_text_input","count_new_inline_script","count_new_keyboard_response","count_new_loop","count_new_sequence","count_occupation_form","count_occupation_logger","count_open_security_input_form","count_personal_data_logger","count_response_logger","count_schooling_level_form","count_schooling_logger","count_security_feature_logger","count_welcome","datetime","denomination","description","disable_garbage_collection","experiment_file","experiment_path","font_bold","font_family","font_italic","font_size","font_underline","foreground","form_clicks","form_response","fullscreen","height","logfile","note_type","opensesame_codename","opensesame_version","reason","response","response_consent_sketchpad","response_goodbye_sketchpad","response_information_display_sketchpad","response_instruction_sketchpad","response_new_1_sketchpad","response_new_keyboard_response","response_time","response_time_consent_sketchpad","response_time_goodbye_sketchpad","response_time_information_display_sketchpad","response_time_instruction_sketchpad","response_time_new_1_sketchpad","response_time_new_keyboard_response","response_time_welcome","response_welcome","round_decimals","show","sound_buf_size","sound_channels","sound_freq","sound_sample_size","start","subject_nr","subject_parity","time_age_form","time_checkbox_security_form","time_consent_sketchpad","time_country_logger","time_eurozone_form","time_eurozone_logger","time_experiment","time_fixation_dots","time_getting_started","time_goodbye_sketchpad","time_images_sketchpad","time_information_display_sketchpad","time_instruction_sketchpad","time_new_1_form_base","time_new_1_form_text_input","time_new_1_sketchpad","time_new_2_logger","time_new_4_form_multiple_choice","time_new_form_base","time_new_form_consent","time_new_form_multiple_choice","time_new_form_text_display","time_new_form_text_input","time_new_inline_script","time_new_keyboard_response","time_new_loop","time_new_sequence","time_occupation_form","time_occupation_logger","time_open_security_input_form","time_personal_data_logger","time_response_logger","time_schooling_level_form","time_schooling_logger","time_security_feature_logger","time_welcome","title","total_correct","total_response_time","total_responses","width"
"undefined","NA","undefined","undefined","undefined","#3d3846","psycho","NA","undefined","undefined","undefined","NA","NA","0","0","0","0","0","0","0","NA","NA","0","NA","NA","0","NA","NA","NA","0","NA","NA","NA","NA","NA","0","NA","NA","0","NA","0","0","0","0","NA","0","0","0","NA","Fri Oct 27 18:21:14 2023","NA","The main experiment item","yes","CogPsy_Assignment_With_Instruction.osexp","C:/Users/joaquincr/Desktop","no","mono","no","18","no","white","no","Yes","yes","768","C:/Users/joaquincr/Desktop/subject-53.csv","NA","Melodramatic Milgram","4.0.5","NA","Yes","space","NA","NA","space","NA","NA","26360.263200011104","26360.263200011104","NA","NA","26378.708299947903","NA","NA","NA","NA","2","NA","1024","2","48000","-16","experiment","53","odd","NA","NA","63330.11469990015","NA","NA","109411.24669997953","36897.60129991919","NA","NA","NA","NA","NA","36942.052399972454","NA","NA","NA","NA","NA","NA","NA","NA","NA","NA","NA","NA","NA","NA","NA","NA","NA","NA","NA","NA","NA","NA","NA","New experiment","0","0","0","1024"
"undefined","NA","undefined","undefined","undefined","#3d3846","psycho","NA","undefined","undefined","undefined","NA","NA","0","0","0","0","0","0","0","NA","NA","0","NA","NA","0","NA","NA","NA","0","NA","NA","NA","NA","NA","0","NA","NA","0","NA","0","0","0","0","NA","0","0","0","NA","Fri Oct 27 18:21:14 2023","NA","The main experiment item","yes","CogPsy_Assignment_With_Instruction.osexp","C:/Users/joaquincr/Desktop","no","mono","no","18","no","white","no","PhD","yes","768","C:/Users/joaquincr/Desktop/subject-53.csv","NA","Melodramatic Milgram","4.0.5","NA","PhD","space","NA","NA","space","NA","NA","26360.263200011104","26360.263200011104","NA","NA","26378.708299947903","NA","NA","NA","NA","2","NA","1024","2","48000","-16","experiment","53","odd","NA","NA","63330.11469990015","NA","NA","109411.24669997953","36897.60129991919","NA","NA","NA","NA","NA","36942.052399972454","NA","NA","NA","NA","NA","NA","NA","NA","NA","NA","NA","NA","NA","NA","NA","NA","NA","NA","NA","NA","126220.55609989911","NA","NA","New experiment","0","0","0","1024"
"undefined","NA","undefined","undefined","undefined","#3d3846","psycho","NA","undefined","undefined","undefined","NA","NA","0","0","0","0","0","0","0","NA","NA","0","NA","NA","0","NA","NA","NA","0","NA","NA","NA","NA","NA","0","NA","NA","0","NA","0","0","0","0","NA","0","0","0","NA","Fri Oct 27 18:21:14 2023","NA","The main experiment item","yes","CogPsy_Assignment_With_Instruction.osexp","C:/Users/joaquincr/Desktop","no","mono","no","18","no","white","no","43","yes","768","C:/Users/joaquincr/Desktop/subject-53.csv","NA","Melodramatic Milgram","4.0.5","NA","43","space","NA","NA","space","NA","NA","26360.263200011104","26360.263200011104","NA","NA","26378.708299947903","NA","NA","NA","NA","2","NA","1024","2","48000","-16","experiment","53","odd","126231.9897999987","NA","63330.11469990015","NA","NA","109411.24669997953","36897.60129991919","NA","NA","NA","NA","NA","36942.052399972454","NA","NA","NA","NA","NA","NA","NA","NA","NA","NA","NA","NA","NA","NA","NA","NA","NA","145534.0558999451","NA","NA","126220.55609989911","NA","NA","New experiment","0","0","0","1024"
"undefined","NA","undefined","undefined","undefined","#3d3846","psycho","NA","undefined","undefined","undefined","NA","NA","0","0","0","0","0","0","0","NA","NA","0","NA","NA","0","NA","NA","NA","0","NA","NA","NA","NA","NA","0","NA","NA","0","NA","0","0","0","0","NA","0","0","0","NA","Fri Oct 27 18:21:14 2023","NA","The main experiment item","yes","CogPsy_Assignment_With_Instruction.osexp","C:/Users/joaquincr/Desktop","no","mono","no","18","no","white","no","German and Hungarian","yes","768","C:/Users/joaquincr/Desktop/subject-53.csv","NA","Melodramatic Milgram","4.0.5","NA","German and Hungarian","space","NA","NA","space","NA","NA","26360.263200011104","26360.263200011104","NA","NA","26378.708299947903","NA","NA","NA","NA","2","NA","1024","2","48000","-16","experiment","53","odd","126231.9897999987","NA","63330.11469990015","162323.45479994547","NA","109411.24669997953","36897.60129991919","NA","NA","NA","NA","NA","36942.052399972454","NA","NA","NA","NA","NA","NA","NA","NA","NA","145541.4935000008","NA","NA","NA","NA","NA","NA","NA","145534.0558999451","NA","NA","126220.55609989911","NA","NA","New experiment","0","0","0","1024"
"undefined","NA","undefined","undefined","undefined","#3d3846","psycho","NA","undefined","undefined","undefined","NA","NA","0","0","0","0","0","0","0","NA","NA","0","NA","NA","0","NA","NA","NA","0","NA","NA","NA","NA","NA","0","NA","NA","0","NA","0","0","0","0","NA","0","0","0","NA","Fri Oct 27 18:21:14 2023","NA","The main experiment item","yes","CogPsy_Assignment_With_Instruction.osexp","C:/Users/joaquincr/Desktop","no","mono","no","18","no","white","no","Management and Leadership","yes","768","C:/Users/joaquincr/Desktop/subject-53.csv","NA","Melodramatic Milgram","4.0.5","NA","Management and Leadership","space","NA","NA","space","NA","NA","26360.263200011104","26360.263200011104","NA","NA","26378.708299947903","NA","NA","NA","NA","2","NA","1024","2","48000","-16","experiment","53","odd","126231.9897999987","NA","63330.11469990015","162323.45479994547","NA","109411.24669997953","36897.60129991919","NA","NA","NA","NA","NA","36942.052399972454","NA","NA","NA","NA","NA","NA","NA","NA","NA","145541.4935000008","NA","NA","NA","NA","NA","173313.40330000967","NA","145534.0558999451","NA","NA","126220.55609989911","NA","NA","New experiment","0","0","0","1024"
"100","NA","100","7083","7083","#3d3846","psycho","NA","1","undefined","undefined","1","left","0","0","0","0","0","0","0","0","NA","0","0","NA","0","NA","NA","NA","0","NA","NA","NA","NA","NA","0","NA","0","0","0","0","0","0","0","0","0","0","0","NA","Fri Oct 27 18:21:14 2023","20","The main experiment item","yes","CogPsy_Assignment_With_Instruction.osexp","C:/Users/joaquincr/Desktop","no","mono","no","18","no","white","no","Management and Leadership","yes","768","C:/Users/joaquincr/Desktop/subject-53.csv","fake","Melodramatic Milgram","4.0.5","bottom_left","left","space","NA","NA","space","NA","left","7083.148100064136","26360.263200011104","NA","NA","26378.708299947903","NA","7083.148100064136","NA","NA","2","fake_1_20","1024","2","48000","-16","experiment","53","odd","126231.9897999987","NA","63330.11469990015","162323.45479994547","NA","109411.24669997953","36897.60129991919","173521.07419993263","NA","NA","174027.4099999806","NA","36942.052399972454","NA","NA","NA","NA","NA","NA","NA","NA","NA","145541.4935000008","NA","174027.61839993764","173321.887099999","173510.147199966","NA","173313.40330000967","NA","145534.0558999451","181111.48239998147","NA","126220.55609989911","NA","NA","New experiment","1","7083.148100064136","1","1024"
"50","NA","50","5611","5611","#3d3846","psycho","NA","0","undefined","undefined","0","right","0","0","0","0","0","0","0","1","NA","0","1","NA","0","NA","NA","NA","0","NA","NA","NA","NA","NA","0","NA","1","0","1","0","0","0","0","1","0","0","0","NA","Fri Oct 27 18:21:14 2023","50","The main experiment item","yes","CogPsy_Assignment_With_Instruction.osexp","C:/Users/joaquincr/Desktop","no","mono","no","18","no","white","no","Management and Leadership","yes","768","C:/Users/joaquincr/Desktop/subject-53.csv","real","Melodramatic Milgram","4.0.5","genuine","left","space","NA","NA","space","NA","left","4139.641499961726","26360.263200011104","NA","NA","26378.708299947903","NA","4139.641499961726","NA","NA","2","real_50","1024","2","48000","-16","experiment","53","odd","126231.9897999987","NA","63330.11469990015","162323.45479994547","NA","109411.24669997953","36897.60129991919","181919.86399993766","NA","NA","182425.35709997173","NA","36942.052399972454","NA","NA","NA","NA","NA","NA","NA","NA","NA","145541.4935000008","NA","182425.52359995898","173321.887099999","181911.1093999818","NA","173313.40330000967","NA","145534.0558999451","186565.6439999584","NA","126220.55609989911","NA","NA","New experiment","1","11222.789600025862","2","1024"
"66","NA","66","5624","5624","#3d3846","psycho","NA","1","undefined","undefined","1","left","0","0","0","0","0","0","0","2","NA","0","2","NA","0","NA","NA","NA","0","NA","NA","NA","NA","NA","0","NA","2","0","2","0","0","0","0","2","0","0","0","NA","Fri Oct 27 18:21:14 2023","20","The main experiment item","yes","CogPsy_Assignment_With_Instruction.osexp","C:/Users/joaquincr/Desktop","no","mono","no","18","no","white","no","Management and Leadership","yes","768","C:/Users/joaquincr/Desktop/subject-53.csv","fake","Melodramatic Milgram","4.0.5","BadInk2","left","space","NA","NA","space","NA","left","5651.6236999304965","26360.263200011104","NA","NA","26378.708299947903","NA","5651.6236999304965","NA","NA","2","fake_20","1024","2","48000","-16","experiment","53","odd","126231.9897999987","NA","63330.11469990015","162323.45479994547","NA","109411.24669997953","36897.60129991919","186847.7881998988","NA","NA","187354.39729993232","NA","36942.052399972454","NA","NA","NA","NA","NA","NA","NA","NA","NA","145541.4935000008","NA","187354.60600000806","173321.887099999","186839.88109999336","NA","173313.40330000967","NA","145534.0558999451","193007.52459990326","NA","126220.55609989911","NA","NA","New experiment","2","16874.41329995636","3","1024"
"50","NA","50","4558","4558","#3d3846","psycho","NA","0","undefined","undefined","0","left","0","0","0","0","0","0","0","3","NA","0","3","NA","0","NA","NA","NA","0","NA","NA","NA","NA","NA","0","NA","3","0","3","0","0","0","0","3","0","0","0","NA","Fri Oct 27 18:21:14 2023","50","The main experiment item","yes","CogPsy_Assignment_With_Instruction.osexp","C:/Users/joaquincr/Desktop","no","mono","no","18","no","white","no","Management and Leadership","yes","768","C:/Users/joaquincr/Desktop/subject-53.csv","fake","Melodramatic Milgram","4.0.5","PurpleDenomination","right","space","NA","NA","space","NA","right","1361.0351999523118","26360.263200011104","NA","NA","26378.708299947903","NA","1361.0351999523118","NA","NA","2","fake_2_50","1024","2","48000","-16","experiment","53","odd","126231.9897999987","NA","63330.11469990015","162323.45479994547","NA","109411.24669997953","36897.60129991919","193263.0053999601","NA","NA","193770.57319995947","NA","36942.052399972454","NA","NA","NA","NA","NA","NA","NA","NA","NA","145541.4935000008","NA","193770.81679995172","173321.887099999","193255.23939996492","NA","173313.40330000967","NA","145534.0558999451","195132.61269999202","NA","126220.55609989911","NA","NA","New experiment","2","18235.44849990867","4","1024"
"60","NA","60","4123","4123","#3d3846","psycho","NA","1","undefined","undefined","1","left","0","0","0","0","0","0","0","4","NA","0","4","NA","0","NA","NA","NA","0","NA","NA","NA","NA","NA","0","NA","4","0","4","0","0","0","0","4","0","0","0","NA","Fri Oct 27 18:21:14 2023","20","The main experiment item","yes","CogPsy_Assignment_With_Instruction.osexp","C:/Users/joaquincr/Desktop","no","mono","no","18","no","white","no","Management and Leadership","yes","768","C:/Users/joaquincr/Desktop/subject-53.csv","fake","Melodramatic Milgram","4.0.5","BadInk","left","space","NA","NA","space","NA","left","2380.407299962826","26360.263200011104","NA","NA","26378.708299947903","NA","2380.407299962826","NA","NA","2","fake_20","1024","2","48000","-16","experiment","53","odd","126231.9897999987","NA","63330.11469990015","162323.45479994547","NA","109411.24669997953","36897.60129991919","195393.77610001247","NA","NA","195900.598899927","NA","36942.052399972454","NA","NA","NA","NA","NA","NA","NA","NA","NA","145541.4935000008","NA","195900.9059999371","173321.887099999","195385.95169992186","NA","173313.40330000967","NA","145534.0558999451","198281.98510000948","NA","126220.55609989911","NA","NA","New experiment","3","20615.855799871497","5","1024"
"50","NA","50","3813","3813","#3d3846","psycho","NA","0","undefined","undefined","0","right","0","0","0","0","0","0","0","5","NA","0","5","NA","0","NA","NA","NA","0","NA","NA","NA","NA","NA","0","NA","5","0","5","0","0","0","0","5","0","0","0","NA","Fri Oct 27 18:21:14 2023","20","The main experiment item","yes","CogPsy_Assignment_With_Instruction.osexp","C:/Users/joaquincr/Desktop","no","mono","no","18","no","white","no","Management and Leadership","yes","768","C:/Users/joaquincr/Desktop/subject-53.csv","real","Melodramatic Milgram","4.0.5","genuine","left","space","NA","NA","space","NA","left","2264.1451000235975","26360.263200011104","NA","NA","26378.708299947903","NA","2264.1451000235975","NA","NA","2","real_20","1024","2","48000","-16","experiment","53","odd","126231.9897999987","NA","63330.11469990015","162323.45479994547","NA","109411.24669997953","36897.60129991919","198496.83469999582","NA","NA","199002.46190000325","NA","36942.052399972454","NA","NA","NA","NA","NA","NA","NA","NA","NA","145541.4935000008","NA","199002.61729990598","173321.887099999","198488.35689993575","NA","173313.40330000967","NA","145534.0558999451","201267.36109994818","NA","126220.55609989911","NA","NA","New experiment","3","22880.000899895094","6","1024"
"57","NA","57","3387","3387","#3d3846","psycho","NA","1","undefined","undefined","1","right","0","0","0","0","0","0","0","6","NA","0","6","NA","0","NA","NA","NA","0","NA","NA","NA","NA","NA","0","NA","6","0","6","0","0","0","0","6","0","0","0","NA","Fri Oct 27 18:21:14 2023","50","The main experiment item","yes","CogPsy_Assignment_With_Instruction.osexp","C:/Users/joaquincr/Desktop","no","mono","no","18","no","white","no","Management and Leadership","yes","768","C:/Users/joaquincr/Desktop/subject-53.csv","real","Melodramatic Milgram","4.0.5","photo_2","right","space","NA","NA","space","NA","right","831.3477999763563","26360.263200011104","NA","NA","26378.708299947903","NA","831.3477999763563","NA","NA","2","real_50","1024","2","48000","-16","experiment","53","odd","126231.9897999987","NA","63330.11469990015","162323.45479994547","NA","109411.24669997953","36897.60129991919","201483.85969991796","NA","NA","201990.44269998558","NA","36942.052399972454","NA","NA","NA","NA","NA","NA","NA","NA","NA","145541.4935000008","NA","201990.6581999967","173321.887099999","201476.3806000119","NA","173313.40330000967","NA","145534.0558999451","202822.919899947","NA","126220.55609989911","NA","NA","New experiment","4","23711.34869987145","7","1024"
"62","NA","62","3519","3519","#3d3846","psycho","NA","1","undefined","undefined","1","right","0","0","0","0","0","0","0","7","NA","0","7","NA","0","NA","NA","NA","0","NA","NA","NA","NA","NA","0","NA","7","0","7","0","0","0","0","7","0","0","0","NA","Fri Oct 27 18:21:14 2023","20","The main experiment item","yes","CogPsy_Assignment_With_Instruction.osexp","C:/Users/joaquincr/Desktop","no","mono","no","18","no","white","no","Management and Leadership","yes","768","C:/Users/joaquincr/Desktop/subject-53.csv","real","Melodramatic Milgram","4.0.5","photo","right","space","NA","NA","space","NA","right","4442.349699907936","26360.263200011104","NA","NA","26378.708299947903","NA","4442.349699907936","NA","NA","2","real_20","1024","2","48000","-16","experiment","53","odd","126231.9897999987","NA","63330.11469990015","162323.45479994547","NA","109411.24669997953","36897.60129991919","203144.3826999748","NA","NA","203650.7450999925","NA","36942.052399972454","NA","NA","NA","NA","NA","NA","NA","NA","NA","145541.4935000008","NA","203650.9597999975","173321.887099999","203135.4527999647","NA","173313.40330000967","NA","145534.0558999451","208094.1187000135","NA","126220.55609989911","NA","NA","New experiment","5","28153.698399779387","8","1024"
"66","NA","66","3284","3284","#3d3846","psycho","NA","1","undefined","undefined","1","left","0","0","0","0","0","0","0","8","NA","0","8","NA","0","NA","NA","NA","0","NA","NA","NA","NA","NA","0","NA","8","0","8","0","0","0","0","8","0","0","0","NA","Fri Oct 27 18:21:14 2023","20","The main experiment item","yes","CogPsy_Assignment_With_Instruction.osexp","C:/Users/joaquincr/Desktop","no","mono","no","18","no","white","no","Management and Leadership","yes","768","C:/Users/joaquincr/Desktop/subject-53.csv","fake","Melodramatic Milgram","4.0.5","DullHologram","left","space","NA","NA","space","NA","left","1407.2449000086635","26360.263200011104","NA","NA","26378.708299947903","NA","1407.2449000086635","NA","NA","2","fake_20","1024","2","48000","-16","experiment","53","odd","126231.9897999987","NA","63330.11469990015","162323.45479994547","NA","109411.24669997953","36897.60129991919","208341.1000999622","NA","NA","208847.44489996228","NA","36942.052399972454","NA","NA","NA","NA","NA","NA","NA","NA","NA","145541.4935000008","NA","208847.64880000148","173321.887099999","208332.79799995944","NA","173313.40330000967","NA","145534.0558999451","210255.6846999796","NA","126220.55609989911","NA","NA","New experiment","6","29560.94329978805","9","1024"
"70","NA","70","3281","3281","#3d3846","psycho","NA","1","undefined","undefined","1","left","0","0","0","0","0","0","0","9","NA","0","9","NA","0","NA","NA","NA","0","NA","NA","NA","NA","NA","0","NA","9","0","9","0","0","0","0","9","0","0","0","NA","Fri Oct 27 18:21:14 2023","50","The main experiment item","yes","CogPsy_Assignment_With_Instruction.osexp","C:/Users/joaquincr/Desktop","no","mono","no","18","no","white","no","Management and Leadership","yes","768","C:/Users/joaquincr/Desktop/subject-53.csv","fake","Melodramatic Milgram","4.0.5","PurpleDenomination3","left","space","NA","NA","space","NA","left","3256.8453999701887","26360.263200011104","NA","NA","26378.708299947903","NA","3256.8453999701887","NA","NA","2","fake_2_50","1024","2","48000","-16","experiment","53","odd","126231.9897999987","NA","63330.11469990015","162323.45479994547","NA","109411.24669997953","36897.60129991919","210510.0400999654","NA","NA","211015.6645999523","NA","36942.052399972454","NA","NA","NA","NA","NA","NA","NA","NA","NA","145541.4935000008","NA","211015.86669997778","173321.887099999","210500.33279997297","NA","173313.40330000967","NA","145534.0558999451","214273.26379995793","NA","126220.55609989911","NA","NA","New experiment","7","32817.78869975824","10","1024"
"63","NA","63","3171","3171","#3d3846","psycho","NA","0","undefined","undefined","0","left","0","0","0","0","0","0","0","10","NA","0","10","NA","0","NA","NA","NA","0","NA","NA","NA","NA","NA","0","NA","10","0","10","0","0","0","0","10","0","0","0","NA","Fri Oct 27 18:21:14 2023","50","The main experiment item","yes","CogPsy_Assignment_With_Instruction.osexp","C:/Users/joaquincr/Desktop","no","mono","no","18","no","white","no","Management and Leadership","yes","768","C:/Users/joaquincr/Desktop/subject-53.csv","fake","Melodramatic Milgram","4.0.5","NoNumOnThread_BlurryWatermark","right","space","NA","NA","space","NA","right","2070.2765999594703","26360.263200011104","NA","NA","26378.708299947903","NA","2070.2765999594703","NA","NA","2","fake_2_50","1024","2","48000","-16","experiment","53","odd","126231.9897999987","NA","63330.11469990015","162323.45479994547","NA","109411.24669997953","36897.60129991919","214519.24679998774","NA","NA","215024.5239000069","NA","36942.052399972454","NA","NA","NA","NA","NA","NA","NA","NA","NA","145541.4935000008","NA","215024.6997999493","173321.887099999","214510.87559992447","NA","173313.40330000967","NA","145534.0558999451","217095.87610000744","NA","126220.55609989911","NA","NA","New experiment","7","34888.06529971771","11","1024"
"66","NA","66","3132","3132","#3d3846","psycho","NA","1","undefined","undefined","1","left","0","0","0","0","0","0","0","11","NA","0","11","NA","0","NA","NA","NA","0","NA","NA","NA","NA","NA","0","NA","11","0","11","0","0","0","0","11","0","0","0","NA","Fri Oct 27 18:21:14 2023","20","The main experiment item","yes","CogPsy_Assignment_With_Instruction.osexp","C:/Users/joaquincr/Desktop","no","mono","no","18","no","white","no","Management and Leadership","yes","768","C:/Users/joaquincr/Desktop/subject-53.csv","fake","Melodramatic Milgram","4.0.5","PurpleDenomination","left","space","NA","NA","space","NA","left","2701.689500012435","26360.263200011104","NA","NA","26378.708299947903","NA","2701.689500012435","NA","NA","2","fake_20","1024","2","48000","-16","experiment","53","odd","126231.9897999987","NA","63330.11469990015","162323.45479994547","NA","109411.24669997953","36897.60129991919","217357.10109991487","NA","NA","217863.15669992473","NA","36942.052399972454","NA","NA","NA","NA","NA","NA","NA","NA","NA","145541.4935000008","NA","217863.37249993812","173321.887099999","217346.89279994927","NA","173313.40330000967","NA","145534.0558999451","220565.880500013","NA","126220.55609989911","NA","NA","New experiment","8","37589.754799730144","12","1024"
"61","NA","61","3194","3194","#3d3846","psycho","NA","0","undefined","undefined","0","left","0","0","0","0","0","0","0","12","NA","0","12","NA","0","NA","NA","NA","0","NA","NA","NA","NA","NA","0","NA","12","0","12","0","0","0","0","12","0","0","0","NA","Fri Oct 27 18:21:14 2023","20","The main experiment item","yes","CogPsy_Assignment_With_Instruction.osexp","C:/Users/joaquincr/Desktop","no","mono","no","18","no","white","no","Management and Leadership","yes","768","C:/Users/joaquincr/Desktop/subject-53.csv","fake","Melodramatic Milgram","4.0.5","NoNumOnThread_BlurryWatermark","right","space","NA","NA","space","NA","right","3943.6762999976054","26360.263200011104","NA","NA","26378.708299947903","NA","3943.6762999976054","NA","NA","2","fake_20","1024","2","48000","-16","experiment","53","odd","126231.9897999987","NA","63330.11469990015","162323.45479994547","NA","109411.24669997953","36897.60129991919","220946.92319992464","NA","NA","221453.65389995277","NA","36942.052399972454","NA","NA","NA","NA","NA","NA","NA","NA","NA","145541.4935000008","NA","221453.88479996473","173321.887099999","220938.4419999551","NA","173313.40330000967","NA","145534.0558999451","225398.18249992095","NA","126220.55609989911","NA","NA","New experiment","8","41533.43109972775","13","1024"
"64","NA","64","3454","3454","#3d3846","psycho","NA","1","undefined","undefined","1","right","0","0","0","0","0","0","0","13","NA","0","13","NA","0","NA","NA","NA","0","NA","NA","NA","NA","NA","0","NA","13","0","13","0","0","0","0","13","0","0","0","NA","Fri Oct 27 18:21:14 2023","50","The main experiment item","yes","CogPsy_Assignment_With_Instruction.osexp","C:/Users/joaquincr/Desktop","no","mono","no","18","no","white","no","Management and Leadership","yes","768","C:/Users/joaquincr/Desktop/subject-53.csv","real","Melodramatic Milgram","4.0.5","photo_2","right","space","NA","NA","space","NA","right","6827.797499950975","26360.263200011104","NA","NA","26378.708299947903","NA","6827.797499950975","NA","NA","2","real_50","1024","2","48000","-16","experiment","53","odd","126231.9897999987","NA","63330.11469990015","162323.45479994547","NA","109411.24669997953","36897.60129991919","225601.56619991176","NA","NA","226108.46279992256","NA","36942.052399972454","NA","NA","NA","NA","NA","NA","NA","NA","NA","145541.4935000008","NA","226108.61060000025","173321.887099999","225591.54189995024","NA","173313.40330000967","NA","145534.0558999451","232936.97489995975","NA","126220.55609989911","NA","NA","New experiment","9","48361.228599678725","14","1024"
"66","NA","66","3292","3292","#3d3846","psycho","NA","1","undefined","undefined","1","left","0","0","0","0","0","0","0","14","NA","0","14","NA","0","NA","NA","NA","0","NA","NA","NA","NA","NA","0","NA","14","0","14","0","0","0","0","14","0","0","0","NA","Fri Oct 27 18:21:14 2023","20","The main experiment item","yes","CogPsy_Assignment_With_Instruction.osexp","C:/Users/joaquincr/Desktop","no","mono","no","18","no","white","no","Management and Leadership","yes","768","C:/Users/joaquincr/Desktop/subject-53.csv","fake","Melodramatic Milgram","4.0.5","silver_strip","left","space","NA","NA","space","NA","left","1031.9133000448346","26360.263200011104","NA","NA","26378.708299947903","NA","1031.9133000448346","NA","NA","2","fake_2_20","1024","2","48000","-16","experiment","53","odd","126231.9897999987","NA","63330.11469990015","162323.45479994547","NA","109411.24669997953","36897.60129991919","233193.23159998748","NA","NA","233699.66379995458","NA","36942.052399972454","NA","NA","NA","NA","NA","NA","NA","NA","NA","145541.4935000008","NA","233699.86379996408","173321.887099999","233182.01379990205","NA","173313.40330000967","NA","145534.0558999451","234732.60459990706","NA","126220.55609989911","NA","NA","New experiment","10","49393.14189972356","15","1024"
"68","NA","68","3211","3211","#3d3846","psycho","NA","1","undefined","undefined","1","left","0","0","0","0","0","0","0","15","NA","0","15","NA","0","NA","NA","NA","0","NA","NA","NA","NA","NA","0","NA","15","0","15","0","0","0","0","15","0","0","0","NA","Fri Oct 27 18:21:14 2023","20","The main experiment item","yes","CogPsy_Assignment_With_Instruction.osexp","C:/Users/joaquincr/Desktop","no","mono","no","18","no","white","no","Management and Leadership","yes","768","C:/Users/joaquincr/Desktop/subject-53.csv","fake","Melodramatic Milgram","4.0.5","PurpleDenomination","left","space","NA","NA","space","NA","left","1988.2977999513969","26360.263200011104","NA","NA","26378.708299947903","NA","1988.2977999513969","NA","NA","2","fake_20","1024","2","48000","-16","experiment","53","odd","126231.9897999987","NA","63330.11469990015","162323.45479994547","NA","109411.24669997953","36897.60129991919","234953.51159991696","NA","NA","235459.67639994342","NA","36942.052399972454","NA","NA","NA","NA","NA","NA","NA","NA","NA","145541.4935000008","NA","235459.88390001003","173321.887099999","234945.63919992652","NA","173313.40330000967","NA","145534.0558999451","237448.84560001083","NA","126220.55609989911","NA","NA","New experiment","11","51381.43969967496","16","1024"
"64","NA","64","3316","3316","#3d3846","psycho","NA","0","undefined","undefined","0","right","0","0","0","0","0","0","0","16","NA","0","16","NA","0","NA","NA","NA","0","NA","NA","NA","NA","NA","0","NA","16","0","16","0","0","0","0","16","0","0","0","NA","Fri Oct 27 18:21:14 2023","50","The main experiment item","yes","CogPsy_Assignment_With_Instruction.osexp","C:/Users/joaquincr/Desktop","no","mono","no","18","no","white","no","Management and Leadership","yes","768","C:/Users/joaquincr/Desktop/subject-53.csv","real","Melodramatic Milgram","4.0.5","photo","left","space","NA","NA","space","NA","left","4994.327599997632","26360.263200011104","NA","NA","26378.708299947903","NA","4994.327599997632","NA","NA","2","real_50","1024","2","48000","-16","experiment","53","odd","126231.9897999987","NA","63330.11469990015","162323.45479994547","NA","109411.24669997953","36897.60129991919","237701.45759999286","NA","NA","238208.20829994045","NA","36942.052399972454","NA","NA","NA","NA","NA","NA","NA","NA","NA","145541.4935000008","NA","238208.41429999564","173321.887099999","237692.60959990788","NA","173313.40330000967","NA","145534.0558999451","243203.54839996435","NA","126220.55609989911","NA","NA","New experiment","11","56375.76729967259","17","1024"
"66","NA","66","3191","3191","#3d3846","psycho","NA","1","undefined","undefined","1","left","0","0","0","0","0","0","0","17","NA","0","17","NA","0","NA","NA","NA","0","NA","NA","NA","NA","NA","0","NA","17","0","17","0","0","0","0","17","0","0","0","NA","Fri Oct 27 18:21:14 2023","50","The main experiment item","yes","CogPsy_Assignment_With_Instruction.osexp","C:/Users/joaquincr/Desktop","no","mono","no","18","no","white","no","Management and Leadership","yes","768","C:/Users/joaquincr/Desktop/subject-53.csv","fake","Melodramatic Milgram","4.0.5","BadInk","left","space","NA","NA","space","NA","left","1072.5814999314025","26360.263200011104","NA","NA","26378.708299947903","NA","1072.5814999314025","NA","NA","2","fake_2_50","1024","2","48000","-16","experiment","53","odd","126231.9897999987","NA","63330.11469990015","162323.45479994547","NA","109411.24669997953","36897.60129991919","243452.14760000817","NA","NA","243958.73610000126","NA","36942.052399972454","NA","NA","NA","NA","NA","NA","NA","NA","NA","145541.4935000008","NA","243958.9500000002","173321.887099999","243444.3200000096","NA","173313.40330000967","NA","145534.0558999451","245032.22579997964","NA","126220.55609989911","NA","NA","New experiment","12","57448.34879960399","18","1024"
"63","NA","63","3209","3209","#3d3846","psycho","NA","0","undefined","undefined","0","right","0","0","0","0","0","0","0","18","NA","0","18","NA","0","NA","NA","NA","0","NA","NA","NA","NA","NA","0","NA","18","0","18","0","0","0","0","18","0","0","0","NA","Fri Oct 27 18:21:14 2023","50","The main experiment item","yes","CogPsy_Assignment_With_Instruction.osexp","C:/Users/joaquincr/Desktop","no","mono","no","18","no","white","no","Management and Leadership","yes","768","C:/Users/joaquincr/Desktop/subject-53.csv","real","Melodramatic Milgram","4.0.5","photo","left","space","NA","NA","space","NA","left","3539.961599977687","26360.263200011104","NA","NA","26378.708299947903","NA","3539.961599977687","NA","NA","2","real_50","1024","2","48000","-16","experiment","53","odd","126231.9897999987","NA","63330.11469990015","162323.45479994547","NA","109411.24669997953","36897.60129991919","245249.2033999879","NA","NA","245755.72149991058","NA","36942.052399972454","NA","NA","NA","NA","NA","NA","NA","NA","NA","145541.4935000008","NA","245755.92489994597","173321.887099999","245241.2100000074","NA","173313.40330000967","NA","145534.0558999451","249296.86779994518","NA","126220.55609989911","NA","NA","New experiment","12","60988.31039958168","19","1024"
"60","NA","60","3122","3122","#3d3846","psycho","NA","0","undefined","undefined","0","right","0","0","0","0","0","0","0","19","NA","0","19","NA","0","NA","NA","NA","0","NA","NA","NA","NA","NA","0","NA","19","0","19","0","0","0","0","19","0","0","0","NA","Fri Oct 27 18:21:14 2023","20","The main experiment item","yes","CogPsy_Assignment_With_Instruction.osexp","C:/Users/joaquincr/Desktop","no","mono","no","18","no","white","no","Management and Leadership","yes","768","C:/Users/joaquincr/Desktop/subject-53.csv","real","Melodramatic Milgram","4.0.5","genuine","left","space","NA","NA","space","NA","left","1465.5765000497922","26360.263200011104","NA","NA","26378.708299947903","NA","1465.5765000497922","NA","NA","2","real_20","1024","2","48000","-16","experiment","53","odd","126231.9897999987","NA","63330.11469990015","162323.45479994547","NA","109411.24669997953","36897.60129991919","249474.55049993005","NA","NA","249982.11699991953","NA","36942.052399972454","NA","NA","NA","NA","NA","NA","NA","NA","NA","145541.4935000008","NA","249982.31919994578","173321.887099999","249466.23559994623","NA","173313.40330000967","NA","145534.0558999451","251448.56869999785","NA","126220.55609989911","NA","NA","New experiment","12","62453.88689963147","20","1024"
"61","NA","61","3048","3048","#3d3846","psycho","NA","1","undefined","undefined","1","left","0","0","0","0","0","0","0","20","NA","0","20","NA","0","NA","NA","NA","0","NA","NA","NA","NA","NA","0","NA","20","0","20","0","0","0","0","20","0","0","0","NA","Fri Oct 27 18:21:14 2023","20","The main experiment item","yes","CogPsy_Assignment_With_Instruction.osexp","C:/Users/joaquincr/Desktop","no","mono","no","18","no","white","no","Management and Leadership","yes","768","C:/Users/joaquincr/Desktop/subject-53.csv","fake","Melodramatic Milgram","4.0.5","BrownDenomination","left","space","NA","NA","space","NA","left","1555.7087999768555","26360.263200011104","NA","NA","26378.708299947903","NA","1555.7087999768555","NA","NA","2","fake_20","1024","2","48000","-16","experiment","53","odd","126231.9897999987","NA","63330.11469990015","162323.45479994547","NA","109411.24669997953","36897.60129991919","251687.55879998207","NA","NA","252193.94959998317","NA","36942.052399972454","NA","NA","NA","NA","NA","NA","NA","NA","NA","145541.4935000008","NA","252194.16079996154","173321.887099999","251677.81889997423","NA","173313.40330000967","NA","145534.0558999451","253751.06679997407","NA","126220.55609989911","NA","NA","New experiment","13","64009.595699608326","21","1024"
"59","NA","59","3001","3001","#3d3846","psycho","NA","0","undefined","undefined","0","right","0","0","0","0","0","0","0","21","NA","0","21","NA","0","NA","NA","NA","0","NA","NA","NA","NA","NA","0","NA","21","0","21","0","0","0","0","21","0","0","0","NA","Fri Oct 27 18:21:14 2023","50","The main experiment item","yes","CogPsy_Assignment_With_Instruction.osexp","C:/Users/joaquincr/Desktop","no","mono","no","18","no","white","no","Management and Leadership","yes","768","C:/Users/joaquincr/Desktop/subject-53.csv","real","Melodramatic Milgram","4.0.5","genuine","left","space","NA","NA","space","NA","left","2029.6674999408424","26360.263200011104","NA","NA","26378.708299947903","NA","2029.6674999408424","NA","NA","2","real_20","1024","2","48000","-16","experiment","53","odd","126231.9897999987","NA","63330.11469990015","162323.45479994547","NA","109411.24669997953","36897.60129991919","253964.8853999097","NA","NA","254471.7265999643","NA","36942.052399972454","NA","NA","NA","NA","NA","NA","NA","NA","NA","145541.4935000008","NA","254471.9560999656","173321.887099999","253956.45749999676","NA","173313.40330000967","NA","145534.0558999451","256502.36729998142","NA","126220.55609989911","NA","NA","New experiment","13","66039.26319954917","22","1024"
"60","NA","60","2915","2915","#3d3846","psycho","NA","1","undefined","undefined","1","left","0","0","0","0","0","0","0","22","NA","0","22","NA","0","NA","NA","NA","0","NA","NA","NA","NA","NA","0","NA","22","0","22","0","0","0","0","22","0","0","0","NA","Fri Oct 27 18:21:14 2023","50","The main experiment item","yes","CogPsy_Assignment_With_Instruction.osexp","C:/Users/joaquincr/Desktop","no","mono","no","18","no","white","no","Management and Leadership","yes","768","C:/Users/joaquincr/Desktop/subject-53.csv","fake","Melodramatic Milgram","4.0.5","bottom_left","left","space","NA","NA","space","NA","left","1017.7875000517815","26360.263200011104","NA","NA","26378.708299947903","NA","1017.7875000517815","NA","NA","2","fake_1_50","1024","2","48000","-16","experiment","53","odd","126231.9897999987","NA","63330.11469990015","162323.45479994547","NA","109411.24669997953","36897.60129991919","256710.69809992332","NA","NA","257219.61789997295","NA","36942.052399972454","NA","NA","NA","NA","NA","NA","NA","NA","NA","145541.4935000008","NA","257219.94669991545","173321.887099999","256699.5710999472","NA","173313.40330000967","NA","145534.0558999451","258238.4622999234","NA","126220.55609989911","NA","NA","New experiment","14","67057.05069960095","23","1024"
"62","NA","62","2881","2881","#3d3846","psycho","NA","1","undefined","undefined","1","left","0","0","0","0","0","0","0","23","NA","0","23","NA","0","NA","NA","NA","0","NA","NA","NA","NA","NA","0","NA","23","0","23","0","0","0","0","23","0","0","0","NA","Fri Oct 27 18:21:14 2023","20","The main experiment item","yes","CogPsy_Assignment_With_Instruction.osexp","C:/Users/joaquincr/Desktop","no","mono","no","18","no","white","no","Management and Leadership","yes","768","C:/Users/joaquincr/Desktop/subject-53.csv","fake","Melodramatic Milgram","4.0.5","BadInk2","left","space","NA","NA","space","NA","left","2108.11430006288","26360.263200011104","NA","NA","26378.708299947903","NA","2108.11430006288","NA","NA","2","fake_20","1024","2","48000","-16","experiment","53","odd","126231.9897999987","NA","63330.11469990015","162323.45479994547","NA","109411.24669997953","36897.60129991919","258623.93589993007","NA","NA","259131.4829000039","NA","36942.052399972454","NA","NA","NA","NA","NA","NA","NA","NA","NA","145541.4935000008","NA","259131.76419993397","173321.887099999","258615.21719989832","NA","173313.40330000967","NA","145534.0558999451","261240.5240999069","NA","126220.55609989911","NA","NA","New experiment","15","69165.16499966383","24","1024"
"64","NA","64","2935","2935","#3d3846","psycho","NA","1","undefined","undefined","1","right","0","0","0","0","0","0","0","24","NA","0","24","NA","0","NA","NA","NA","0","NA","NA","NA","NA","NA","0","NA","24","0","24","0","0","0","0","24","0","0","0","NA","Fri Oct 27 18:21:14 2023","20","The main experiment item","yes","CogPsy_Assignment_With_Instruction.osexp","C:/Users/joaquincr/Desktop","no","mono","no","18","no","white","no","Management and Leadership","yes","768","C:/Users/joaquincr/Desktop/subject-53.csv","real","Melodramatic Milgram","4.0.5","photo","right","space","NA","NA","space","NA","right","4232.5436000246555","26360.263200011104","NA","NA","26378.708299947903","NA","4232.5436000246555","NA","NA","2","real_20","1024","2","48000","-16","experiment","53","odd","126231.9897999987","NA","63330.11469990015","162323.45479994547","NA","109411.24669997953","36897.60129991919","261536.64199996274","NA","NA","262042.78909997083","NA","36942.052399972454","NA","NA","NA","NA","NA","NA","NA","NA","NA","145541.4935000008","NA","262042.9886999773","173321.887099999","261527.6642999379","NA","173313.40330000967","NA","145534.0558999451","266276.47769998293","NA","126220.55609989911","NA","NA","New experiment","16","73397.70859968849","25","1024"
"65","NA","65","2876","2876","#3d3846","psycho","NA","1","undefined","undefined","1","left","0","0","0","0","0","0","0","25","NA","0","25","NA","0","NA","NA","NA","0","NA","NA","NA","NA","NA","0","NA","25","0","25","0","0","0","0","25","0","0","0","NA","Fri Oct 27 18:21:14 2023","50","The main experiment item","yes","CogPsy_Assignment_With_Instruction.osexp","C:/Users/joaquincr/Desktop","no","mono","no","18","no","white","no","Management and Leadership","yes","768","C:/Users/joaquincr/Desktop/subject-53.csv","fake","Melodramatic Milgram","4.0.5","PurpleDenomination2","left","space","NA","NA","space","NA","left","1379.4056000187993","26360.263200011104","NA","NA","26378.708299947903","NA","1379.4056000187993","NA","NA","2","fake_2_50","1024","2","48000","-16","experiment","53","odd","126231.9897999987","NA","63330.11469990015","162323.45479994547","NA","109411.24669997953","36897.60129991919","266670.16179999337","NA","NA","267175.6996999029","NA","36942.052399972454","NA","NA","NA","NA","NA","NA","NA","NA","NA","145541.4935000008","NA","267175.8931999793","173321.887099999","266660.9039999312","NA","173313.40330000967","NA","145534.0558999451","268556.33669998497","NA","126220.55609989911","NA","NA","New experiment","17","74777.11419970728","26","1024"
"62","NA","62","2927","2927","#3d3846","psycho","NA","0","undefined","undefined","0","right","0","0","0","0","0","0","0","26","NA","0","26","NA","0","NA","NA","NA","0","NA","NA","NA","NA","NA","0","NA","26","0","26","0","0","0","0","26","0","0","0","NA","Fri Oct 27 18:21:14 2023","50","The main experiment item","yes","CogPsy_Assignment_With_Instruction.osexp","C:/Users/joaquincr/Desktop","no","mono","no","18","no","white","no","Management and Leadership","yes","768","C:/Users/joaquincr/Desktop/subject-53.csv","real","Melodramatic Milgram","4.0.5","photo","left","space","NA","NA","space","NA","left","4265.700299991295","26360.263200011104","NA","NA","26378.708299947903","NA","4265.700299991295","NA","NA","2","real_50","1024","2","48000","-16","experiment","53","odd","126231.9897999987","NA","63330.11469990015","162323.45479994547","NA","109411.24669997953","36897.60129991919","268803.44699998386","NA","NA","269310.01299992204","NA","36942.052399972454","NA","NA","NA","NA","NA","NA","NA","NA","NA","145541.4935000008","NA","269310.34239998553","173321.887099999","268793.4493999928","NA","173313.40330000967","NA","145534.0558999451","273577.00529997237","NA","126220.55609989911","NA","NA","New experiment","17","79042.81449969858","27","1024"
"60","NA","60","2856","2856","#3d3846","psycho","NA","0","undefined","undefined","0","right","0","0","0","0","0","0","0","27","NA","0","27","NA","0","NA","NA","NA","0","NA","NA","NA","NA","NA","0","NA","27","0","27","0","0","0","0","27","0","0","0","NA","Fri Oct 27 18:21:14 2023","20","The main experiment item","yes","CogPsy_Assignment_With_Instruction.osexp","C:/Users/joaquincr/Desktop","no","mono","no","18","no","white","no","Management and Leadership","yes","768","C:/Users/joaquincr/Desktop/subject-53.csv","real","Melodramatic Milgram","4.0.5","genuine","left","space","NA","NA","space","NA","left","933.4159999853","26360.263200011104","NA","NA","26378.708299947903","NA","933.4159999853","NA","NA","2","real_20","1024","2","48000","-16","experiment","53","odd","126231.9897999987","NA","63330.11469990015","162323.45479994547","NA","109411.24669997953","36897.60129991919","273758.5710999556","NA","NA","274264.08359990455","NA","36942.052399972454","NA","NA","NA","NA","NA","NA","NA","NA","NA","145541.4935000008","NA","274264.27399995737","173321.887099999","273750.0304999994","NA","173313.40330000967","NA","145534.0558999451","275198.62399995327","NA","126220.55609989911","NA","NA","New experiment","17","79976.23049968388","28","1024"
"62","NA","62","2786","2786","#3d3846","psycho","NA","1","undefined","undefined","1","left","0","0","0","0","0","0","0","28","NA","0","28","NA","0","NA","NA","NA","0","NA","NA","NA","NA","NA","0","NA","28","0","28","0","0","0","0","28","0","0","0","NA","Fri Oct 27 18:21:14 2023","50","The main experiment item","yes","CogPsy_Assignment_With_Instruction.osexp","C:/Users/joaquincr/Desktop","no","mono","no","18","no","white","no","Management and Leadership","yes","768","C:/Users/joaquincr/Desktop/subject-53.csv","fake","Melodramatic Milgram","4.0.5","GreyDenomination","left","space","NA","NA","space","NA","left","834.6681999973953","26360.263200011104","NA","NA","26378.708299947903","NA","834.6681999973953","NA","NA","2","fake_2_50","1024","2","48000","-16","experiment","53","odd","126231.9897999987","NA","63330.11469990015","162323.45479994547","NA","109411.24669997953","36897.60129991919","275447.85669993144","NA","NA","275954.4217999792","NA","36942.052399972454","NA","NA","NA","NA","NA","NA","NA","NA","NA","145541.4935000008","NA","275954.66189994477","173321.887099999","275439.58879995625","NA","173313.40330000967","NA","145534.0558999451","276790.2710000053","NA","126220.55609989911","NA","NA","New experiment","18","80810.89869968127","29","1024"
"63","NA","63","2738","2738","#3d3846","psycho","NA","1","undefined","undefined","1","right","0","0","0","0","0","0","0","29","NA","0","29","NA","0","NA","NA","NA","0","NA","NA","NA","NA","NA","0","NA","29","0","29","0","0","0","0","29","0","0","0","NA","Fri Oct 27 18:21:14 2023","50","The main experiment item","yes","CogPsy_Assignment_With_Instruction.osexp","C:/Users/joaquincr/Desktop","no","mono","no","18","no","white","no","Management and Leadership","yes","768","C:/Users/joaquincr/Desktop/subject-53.csv","real","Melodramatic Milgram","4.0.5","photo_2","right","space","NA","NA","space","NA","right","1344.8042999953032","26360.263200011104","NA","NA","26378.708299947903","NA","1344.8042999953032","NA","NA","2","real_50","1024","2","48000","-16","experiment","53","odd","126231.9897999987","NA","63330.11469990015","162323.45479994547","NA","109411.24669997953","36897.60129991919","277044.8998999782","NA","NA","277552.2642999422","NA","36942.052399972454","NA","NA","NA","NA","NA","NA","NA","NA","NA","145541.4935000008","NA","277552.5738999713","173321.887099999","277036.82459995616","NA","173313.40330000967","NA","145534.0558999451","278898.54369999375","NA","126220.55609989911","NA","NA","New experiment","19","82155.70299967658","30","1024"
"64","NA","64","2695","2695","#3d3846","psycho","NA","1","undefined","undefined","1","left","0","0","0","0","0","0","0","30","NA","0","30","NA","0","NA","NA","NA","0","NA","NA","NA","NA","NA","0","NA","30","0","30","0","0","0","0","30","0","0","0","NA","Fri Oct 27 18:21:14 2023","20","The main experiment item","yes","CogPsy_Assignment_With_Instruction.osexp","C:/Users/joaquincr/Desktop","no","mono","no","18","no","white","no","Management and Leadership","yes","768","C:/Users/joaquincr/Desktop/subject-53.csv","fake","Melodramatic Milgram","4.0.5","bottom_left","left","space","NA","NA","space","NA","left","1416.9861000264063","26360.263200011104","NA","NA","26378.708299947903","NA","1416.9861000264063","NA","NA","2","fake_1_20","1024","2","48000","-16","experiment","53","odd","126231.9897999987","NA","63330.11469990015","162323.45479994547","NA","109411.24669997953","36897.60129991919","279091.61050000694","NA","NA","279599.9298999086","NA","36942.052399972454","NA","NA","NA","NA","NA","NA","NA","NA","NA","145541.4935000008","NA","279600.1953999512","173321.887099999","279082.54569990095","NA","173313.40330000967","NA","145534.0558999451","281018.4554998996","NA","126220.55609989911","NA","NA","New experiment","20","83572.68909970298","31","1024"
"65","NA","65","2726","2726","#3d3846","psycho","NA","1","undefined","undefined","1","left","0","0","0","0","0","0","0","31","NA","0","31","NA","0","NA","NA","NA","0","NA","NA","NA","NA","NA","0","NA","31","0","31","0","0","0","0","31","0","0","0","NA","Fri Oct 27 18:21:14 2023","50","The main experiment item","yes","CogPsy_Assignment_With_Instruction.osexp","C:/Users/joaquincr/Desktop","no","mono","no","18","no","white","no","Management and Leadership","yes","768","C:/Users/joaquincr/Desktop/subject-53.csv","fake","Melodramatic Milgram","4.0.5","silver_strip","left","space","NA","NA","space","NA","left","3668.976300046779","26360.263200011104","NA","NA","26378.708299947903","NA","3668.976300046779","NA","NA","2","fake_2_50","1024","2","48000","-16","experiment","53","odd","126231.9897999987","NA","63330.11469990015","162323.45479994547","NA","109411.24669997953","36897.60129991919","281263.8443999458","NA","NA","281772.97839999665","NA","36942.052399972454","NA","NA","NA","NA","NA","NA","NA","NA","NA","145541.4935000008","NA","281773.3106999658","173321.887099999","281255.50169998314","NA","173313.40330000967","NA","145534.0558999451","285443.2802000083","NA","126220.55609989911","NA","NA","New experiment","21","87241.66539974976","32","1024"
"66","NA","66","2688","2688","#3d3846","psycho","NA","1","undefined","undefined","1","right","0","0","0","0","0","0","0","32","NA","0","32","NA","0","NA","NA","NA","0","NA","NA","NA","NA","NA","0","NA","32","0","32","0","0","0","0","32","0","0","0","NA","Fri Oct 27 18:21:14 2023","20","The main experiment item","yes","CogPsy_Assignment_With_Instruction.osexp","C:/Users/joaquincr/Desktop","no","mono","no","18","no","white","no","Management and Leadership","yes","768","C:/Users/joaquincr/Desktop/subject-53.csv","real","Melodramatic Milgram","4.0.5","photo","right","space","NA","NA","space","NA","right","1482.076600077562","26360.263200011104","NA","NA","26378.708299947903","NA","1482.076600077562","NA","NA","2","real_20","1024","2","48000","-16","experiment","53","odd","126231.9897999987","NA","63330.11469990015","162323.45479994547","NA","109411.24669997953","36897.60129991919","285836.60899999086","NA","NA","286346.2401999859","NA","36942.052399972454","NA","NA","NA","NA","NA","NA","NA","NA","NA","145541.4935000008","NA","286346.64519992657","173321.887099999","285822.39789993037","NA","173313.40330000967","NA","145534.0558999451","287830.15609998256","NA","126220.55609989911","NA","NA","New experiment","22","88723.74199982733","33","1024"
"64","NA","64","2706","2706","#3d3846","psycho","NA","0","undefined","undefined","0","right","0","0","0","0","0","0","0","33","NA","0","33","NA","0","NA","NA","NA","0","NA","NA","NA","NA","NA","0","NA","33","0","33","0","0","0","0","33","0","0","0","NA","Fri Oct 27 18:21:14 2023","50","The main experiment item","yes","CogPsy_Assignment_With_Instruction.osexp","C:/Users/joaquincr/Desktop","no","mono","no","18","no","white","no","Management and Leadership","yes","768","C:/Users/joaquincr/Desktop/subject-53.csv","real","Melodramatic Milgram","4.0.5","photo","left","space","NA","NA","space","NA","left","3306.8008999107406","26360.263200011104","NA","NA","26378.708299947903","NA","3306.8008999107406","NA","NA","2","real_50","1024","2","48000","-16","experiment","53","odd","126231.9897999987","NA","63330.11469990015","162323.45479994547","NA","109411.24669997953","36897.60129991919","288117.9423999274","NA","NA","288624.5147999143","NA","36942.052399972454","NA","NA","NA","NA","NA","NA","NA","NA","NA","145541.4935000008","NA","288624.7402000008","173321.887099999","288109.3968999339","NA","173313.40330000967","NA","145534.0558999451","291932.2125999024","NA","126220.55609989911","NA","NA","New experiment","22","92030.54289973807","34","1024"
"65","NA","65","2658","2658","#3d3846","psycho","NA","1","undefined","undefined","1","left","0","0","0","0","0","0","0","34","NA","0","34","NA","0","NA","NA","NA","0","NA","NA","NA","NA","NA","0","NA","34","0","34","0","0","0","0","34","0","0","0","NA","Fri Oct 27 18:21:14 2023","20","The main experiment item","yes","CogPsy_Assignment_With_Instruction.osexp","C:/Users/joaquincr/Desktop","no","mono","no","18","no","white","no","Management and Leadership","yes","768","C:/Users/joaquincr/Desktop/subject-53.csv","fake","Melodramatic Milgram","4.0.5","BrownDenomination","left","space","NA","NA","space","NA","left","1032.1623999625444","26360.263200011104","NA","NA","26378.708299947903","NA","1032.1623999625444","NA","NA","2","fake_20","1024","2","48000","-16","experiment","53","odd","126231.9897999987","NA","63330.11469990015","162323.45479994547","NA","109411.24669997953","36897.60129991919","292152.57879998535","NA","NA","292660.4281999171","NA","36942.052399972454","NA","NA","NA","NA","NA","NA","NA","NA","NA","145541.4935000008","NA","292660.70929996204","173321.887099999","292144.86379991286","NA","173313.40330000967","NA","145534.0558999451","293693.9721999224","NA","126220.55609989911","NA","NA","New experiment","23","93062.70529970061","35","1024"
"66","NA","66","2623","2623","#3d3846","psycho","NA","1","undefined","undefined","1","right","0","0","0","0","0","0","0","35","NA","0","35","NA","0","NA","NA","NA","0","NA","NA","NA","NA","NA","0","NA","35","0","35","0","0","0","0","35","0","0","0","NA","Fri Oct 27 18:21:14 2023","20","The main experiment item","yes","CogPsy_Assignment_With_Instruction.osexp","C:/Users/joaquincr/Desktop","no","mono","no","18","no","white","no","Management and Leadership","yes","768","C:/Users/joaquincr/Desktop/subject-53.csv","real","Melodramatic Milgram","4.0.5","photo","right","space","NA","NA","space","NA","right","1384.6006999956444","26360.263200011104","NA","NA","26378.708299947903","NA","1384.6006999956444","NA","NA","2","real_20","1024","2","48000","-16","experiment","53","odd","126231.9897999987","NA","63330.11469990015","162323.45479994547","NA","109411.24669997953","36897.60129991919","293972.68399992026","NA","NA","294480.3222999908","NA","36942.052399972454","NA","NA","NA","NA","NA","NA","NA","NA","NA","145541.4935000008","NA","294480.6181999156","173321.887099999","293964.5357999252","NA","173313.40330000967","NA","145534.0558999451","295866.076999926","NA","126220.55609989911","NA","NA","New experiment","24","94447.30599969625","36","1024"
"67","NA","67","2574","2574","#3d3846","psycho","NA","1","undefined","undefined","1","left","0","0","0","0","0","0","0","36","NA","0","36","NA","0","NA","NA","NA","0","NA","NA","NA","NA","NA","0","NA","36","0","36","0","0","0","0","36","0","0","0","NA","Fri Oct 27 18:21:14 2023","50","The main experiment item","yes","CogPsy_Assignment_With_Instruction.osexp","C:/Users/joaquincr/Desktop","no","mono","no","18","no","white","no","Management and Leadership","yes","768","C:/Users/joaquincr/Desktop/subject-53.csv","fake","Melodramatic Milgram","4.0.5","bottom_left","left","space","NA","NA","space","NA","left","795.210300013423","26360.263200011104","NA","NA","26378.708299947903","NA","795.210300013423","NA","NA","2","fake_1_50","1024","2","48000","-16","experiment","53","odd","126231.9897999987","NA","63330.11469990015","162323.45479994547","NA","109411.24669997953","36897.60129991919","296103.4284000052","NA","NA","296610.1135999197","NA","36942.052399972454","NA","NA","NA","NA","NA","NA","NA","NA","NA","145541.4935000008","NA","296610.3185999673","173321.887099999","296094.6384000126","NA","173313.40330000967","NA","145534.0558999451","297406.3138999045","NA","126220.55609989911","NA","NA","New experiment","25","95242.51629970968","37","1024"
"68","NA","68","2526","2526","#3d3846","psycho","NA","1","undefined","undefined","1","left","0","0","0","0","0","0","0","37","NA","0","37","NA","0","NA","NA","NA","0","NA","NA","NA","NA","NA","0","NA","37","0","37","0","0","0","0","37","0","0","0","NA","Fri Oct 27 18:21:14 2023","20","The main experiment item","yes","CogPsy_Assignment_With_Instruction.osexp","C:/Users/joaquincr/Desktop","no","mono","no","18","no","white","no","Management and Leadership","yes","768","C:/Users/joaquincr/Desktop/subject-53.csv","fake","Melodramatic Milgram","4.0.5","DullHologram2","left","space","NA","NA","space","NA","left","776.7533999867737","26360.263200011104","NA","NA","26378.708299947903","NA","776.7533999867737","NA","NA","2","fake_20","1024","2","48000","-16","experiment","53","odd","126231.9897999987","NA","63330.11469990015","162323.45479994547","NA","109411.24669997953","36897.60129991919","297649.08389991615","NA","NA","298155.9039999265","NA","36942.052399972454","NA","NA","NA","NA","NA","NA","NA","NA","NA","145541.4935000008","NA","298156.10499994364","173321.887099999","297640.4979999643","NA","173313.40330000967","NA","145534.0558999451","298933.6249999469","NA","126220.55609989911","NA","NA","New experiment","26","96019.26969969645","38","1024"
"66","NA","66","2494","2494","#3d3846","psycho","NA","0","undefined","undefined","0","left","0","0","0","0","0","0","0","38","NA","0","38","NA","0","NA","NA","NA","0","NA","NA","NA","NA","NA","0","NA","38","0","38","0","0","0","0","38","0","0","0","NA","Fri Oct 27 18:21:14 2023","50","The main experiment item","yes","CogPsy_Assignment_With_Instruction.osexp","C:/Users/joaquincr/Desktop","no","mono","no","18","no","white","no","Management and Leadership","yes","768","C:/Users/joaquincr/Desktop/subject-53.csv","fake","Melodramatic Milgram","4.0.5","PurpleDenomination","right","space","NA","NA","space","NA","right","1283.2352999830619","26360.263200011104","NA","NA","26378.708299947903","NA","1283.2352999830619","NA","NA","2","fake_2_50","1024","2","48000","-16","experiment","53","odd","126231.9897999987","NA","63330.11469990015","162323.45479994547","NA","109411.24669997953","36897.60129991919","299128.6275999155","NA","NA","299635.8320999425","NA","36942.052399972454","NA","NA","NA","NA","NA","NA","NA","NA","NA","145541.4935000008","NA","299636.1117999768","173321.887099999","299120.9074999206","NA","173313.40330000967","NA","145534.0558999451","300920.0475999387","NA","126220.55609989911","NA","NA","New experiment","26","97302.50499967951","39","1024"
"67","NA","67","2503","2503","#3d3846","psycho","NA","1","undefined","undefined","1","left","0","0","0","0","0","0","0","39","NA","0","39","NA","0","NA","NA","NA","0","NA","NA","NA","NA","NA","0","NA","39","0","39","0","0","0","0","39","0","0","0","NA","Fri Oct 27 18:21:14 2023","20","The main experiment item","yes","CogPsy_Assignment_With_Instruction.osexp","C:/Users/joaquincr/Desktop","no","mono","no","18","no","white","no","Management and Leadership","yes","768","C:/Users/joaquincr/Desktop/subject-53.csv","fake","Melodramatic Milgram","4.0.5","DullHologram2","left","space","NA","NA","space","NA","left","2843.075399985537","26360.263200011104","NA","NA","26378.708299947903","NA","2843.075399985537","NA","NA","2","fake_20","1024","2","48000","-16","experiment","53","odd","126231.9897999987","NA","63330.11469990015","162323.45479994547","NA","109411.24669997953","36897.60129991919","301252.9457999626","NA","NA","301758.4437999176","NA","36942.052399972454","NA","NA","NA","NA","NA","NA","NA","NA","NA","145541.4935000008","NA","301758.60119995195","173321.887099999","301244.557500002","NA","173313.40330000967","NA","145534.0558999451","304602.3828999605","NA","126220.55609989911","NA","NA","New experiment","27","100145.58039966505","40","1024"
"68","NA","68","2472","2472","#3d3846","psycho","NA","1","undefined","undefined","1","left","0","0","0","0","0","0","0","40","NA","0","40","NA","0","NA","NA","NA","0","NA","NA","NA","NA","NA","0","NA","40","0","40","0","0","0","0","40","0","0","0","NA","Fri Oct 27 18:21:14 2023","50","The main experiment item","yes","CogPsy_Assignment_With_Instruction.osexp","C:/Users/joaquincr/Desktop","no","mono","no","18","no","white","no","Management and Leadership","yes","768","C:/Users/joaquincr/Desktop/subject-53.csv","fake","Melodramatic Milgram","4.0.5","PurpleDenomination3","left","space","NA","NA","space","NA","left","1211.7830999195576","26360.263200011104","NA","NA","26378.708299947903","NA","1211.7830999195576","NA","NA","2","fake_2_50","1024","2","48000","-16","experiment","53","odd","126231.9897999987","NA","63330.11469990015","162323.45479994547","NA","109411.24669997953","36897.60129991919","304853.45079994295","NA","NA","305361.7073999485","NA","36942.052399972454","NA","NA","NA","NA","NA","NA","NA","NA","NA","145541.4935000008","NA","305362.03409999143","173321.887099999","304844.15349992923","NA","173313.40330000967","NA","145534.0558999451","306574.6239","NA","126220.55609989911","NA","NA","New experiment","28","101357.36349958461","41","1024"
"66","NA","66","2478","2478","#3d3846","psycho","NA","0","undefined","undefined","0","right","0","0","0","0","0","0","0","41","NA","0","41","NA","0","NA","NA","NA","0","NA","NA","NA","NA","NA","0","NA","41","0","41","0","0","0","0","41","0","0","0","NA","Fri Oct 27 18:21:14 2023","50","The main experiment item","yes","CogPsy_Assignment_With_Instruction.osexp","C:/Users/joaquincr/Desktop","no","mono","no","18","no","white","no","Management and Leadership","yes","768","C:/Users/joaquincr/Desktop/subject-53.csv","real","Melodramatic Milgram","4.0.5","genuine","left","space","NA","NA","space","NA","left","2745.5557000357658","26360.263200011104","NA","NA","26378.708299947903","NA","2745.5557000357658","NA","NA","2","real_50","1024","2","48000","-16","experiment","53","odd","126231.9897999987","NA","63330.11469990015","162323.45479994547","NA","109411.24669997953","36897.60129991919","306773.95379997324","NA","NA","307280.7720999699","NA","36942.052399972454","NA","NA","NA","NA","NA","NA","NA","NA","NA","145541.4935000008","NA","307280.9544999618","173321.887099999","306765.6743999105","NA","173313.40330000967","NA","145534.0558999451","310027.6409999933","NA","126220.55609989911","NA","NA","New experiment","28","104102.91919962037","42","1024"
"65","NA","65","2443","2443","#3d3846","psycho","NA","0","undefined","undefined","0","right","0","0","0","0","0","0","0","42","NA","0","42","NA","0","NA","NA","NA","0","NA","NA","NA","NA","NA","0","NA","42","0","42","0","0","0","0","42","0","0","0","NA","Fri Oct 27 18:21:14 2023","50","The main experiment item","yes","CogPsy_Assignment_With_Instruction.osexp","C:/Users/joaquincr/Desktop","no","mono","no","18","no","white","no","Management and Leadership","yes","768","C:/Users/joaquincr/Desktop/subject-53.csv","real","Melodramatic Milgram","4.0.5","genuine","left","space","NA","NA","space","NA","left","977.7492000721395","26360.263200011104","NA","NA","26378.708299947903","NA","977.7492000721395","NA","NA","2","real_20","1024","2","48000","-16","experiment","53","odd","126231.9897999987","NA","63330.11469990015","162323.45479994547","NA","109411.24669997953","36897.60129991919","310209.9266999867","NA","NA","310718.52190000936","NA","36942.052399972454","NA","NA","NA","NA","NA","NA","NA","NA","NA","145541.4935000008","NA","310718.84659992065","173321.887099999","310201.7741999589","NA","173313.40330000967","NA","145534.0558999451","311697.5303000072","NA","126220.55609989911","NA","NA","New experiment","28","105080.66839969251","43","1024"
"65","NA","65","2456","2456","#3d3846","psycho","NA","1","undefined","undefined","1","right","0","0","0","0","0","0","0","43","NA","0","43","NA","0","NA","NA","NA","0","NA","NA","NA","NA","NA","0","NA","43","0","43","0","0","0","0","43","0","0","0","NA","Fri Oct 27 18:21:14 2023","50","The main experiment item","yes","CogPsy_Assignment_With_Instruction.osexp","C:/Users/joaquincr/Desktop","no","mono","no","18","no","white","no","Management and Leadership","yes","768","C:/Users/joaquincr/Desktop/subject-53.csv","real","Melodramatic Milgram","4.0.5","photo_2","right","space","NA","NA","space","NA","right","2987.744100042619","26360.263200011104","NA","NA","26378.708299947903","NA","2987.744100042619","NA","NA","2","real_50","1024","2","48000","-16","experiment","53","odd","126231.9897999987","NA","63330.11469990015","162323.45479994547","NA","109411.24669997953","36897.60129991919","311884.8938998999","NA","NA","312391.310099978","NA","36942.052399972454","NA","NA","NA","NA","NA","NA","NA","NA","NA","145541.4935000008","NA","312391.5464999154","173321.887099999","311877.58530001156","NA","173313.40330000967","NA","145534.0558999451","315380.19980001263","NA","126220.55609989911","NA","NA","New experiment","29","108068.41249973513","44","1024"
"66","NA","66","2452","2452","#3d3846","psycho","NA","1","undefined","undefined","1","left","0","0","0","0","0","0","0","44","NA","0","44","NA","0","NA","NA","NA","0","NA","NA","NA","NA","NA","0","NA","44","0","44","0","0","0","0","44","0","0","0","NA","Fri Oct 27 18:21:14 2023","50","The main experiment item","yes","CogPsy_Assignment_With_Instruction.osexp","C:/Users/joaquincr/Desktop","no","mono","no","18","no","white","no","Management and Leadership","yes","768","C:/Users/joaquincr/Desktop/subject-53.csv","fake","Melodramatic Milgram","4.0.5","GreyDenomination","left","space","NA","NA","space","NA","left","2303.4956000046805","26360.263200011104","NA","NA","26378.708299947903","NA","2303.4956000046805","NA","NA","2","fake_2_50","1024","2","48000","-16","experiment","53","odd","126231.9897999987","NA","63330.11469990015","162323.45479994547","NA","109411.24669997953","36897.60129991919","315622.8098999709","NA","NA","316130.12959994376","NA","36942.052399972454","NA","NA","NA","NA","NA","NA","NA","NA","NA","145541.4935000008","NA","316130.3431999404","173321.887099999","315613.7491000118","NA","173313.40330000967","NA","145534.0558999451","318434.5869999379","NA","126220.55609989911","NA","NA","New experiment","30","110371.90809973981","45","1024"
"65","NA","65","2489","2489","#3d3846","psycho","NA","0","undefined","undefined","0","left","0","0","0","0","0","0","0","45","NA","0","45","NA","0","NA","NA","NA","0","NA","NA","NA","NA","NA","0","NA","45","0","45","0","0","0","0","45","0","0","0","NA","Fri Oct 27 18:21:14 2023","50","The main experiment item","yes","CogPsy_Assignment_With_Instruction.osexp","C:/Users/joaquincr/Desktop","no","mono","no","18","no","white","no","Management and Leadership","yes","768","C:/Users/joaquincr/Desktop/subject-53.csv","fake","Melodramatic Milgram","4.0.5","NoNumOnThread_BlurryWatermark","right","space","NA","NA","space","NA","right","4153.441300033592","26360.263200011104","NA","NA","26378.708299947903","NA","4153.441300033592","NA","NA","2","fake_2_50","1024","2","48000","-16","experiment","53","odd","126231.9897999987","NA","63330.11469990015","162323.45479994547","NA","109411.24669997953","36897.60129991919","318669.3830000004","NA","NA","319175.3063999349","NA","36942.052399972454","NA","NA","NA","NA","NA","NA","NA","NA","NA","145541.4935000008","NA","319175.5159999011","173321.887099999","318661.0707999207","NA","173313.40330000967","NA","145534.0558999451","323329.8816999886","NA","126220.55609989911","NA","NA","New experiment","30","114525.3493997734","46","1024"
"65","NA","65","2453","2453","#3d3846","psycho","NA","1","undefined","undefined","1","left","0","0","0","0","0","0","0","46","NA","0","46","NA","0","NA","NA","NA","0","NA","NA","NA","NA","NA","0","NA","46","0","46","0","0","0","0","46","0","0","0","NA","Fri Oct 27 18:21:14 2023","50","The main experiment item","yes","CogPsy_Assignment_With_Instruction.osexp","C:/Users/joaquincr/Desktop","no","mono","no","18","no","white","no","Management and Leadership","yes","768","C:/Users/joaquincr/Desktop/subject-53.csv","fake","Melodramatic Milgram","4.0.5","BadInk","left","space","NA","NA","space","NA","left","798.9341999636963","26360.263200011104","NA","NA","26378.708299947903","NA","798.9341999636963","NA","NA","2","fake_2_50","1024","2","48000","-16","experiment","53","odd","126231.9897999987","NA","63330.11469990015","162323.45479994547","NA","109411.24669997953","36897.60129991919","323580.6320999982","NA","NA","324085.5296999216","NA","36942.052399972454","NA","NA","NA","NA","NA","NA","NA","NA","NA","145541.4935000008","NA","324085.69420001004","173321.887099999","323572.3351999186","NA","173313.40330000967","NA","145534.0558999451","324885.44879993424","NA","126220.55609989911","NA","NA","New experiment","31","115324.2835997371","47","1024"
"64","NA","64","2481","2481","#3d3846","psycho","NA","0","undefined","undefined","0","left","0","0","0","0","0","0","0","47","NA","0","47","NA","0","NA","NA","NA","0","NA","NA","NA","NA","NA","0","NA","47","0","47","0","0","0","0","47","0","0","0","NA","Fri Oct 27 18:21:14 2023","20","The main experiment item","yes","CogPsy_Assignment_With_Instruction.osexp","C:/Users/joaquincr/Desktop","no","mono","no","18","no","white","no","Management and Leadership","yes","768","C:/Users/joaquincr/Desktop/subject-53.csv","fake","Melodramatic Milgram","4.0.5","NoNumOnThread_BlurryWatermark","right","space","NA","NA","space","NA","right","3811.6811000509188","26360.263200011104","NA","NA","26378.708299947903","NA","3811.6811000509188","NA","NA","2","fake_20","1024","2","48000","-16","experiment","53","odd","126231.9897999987","NA","63330.11469990015","162323.45479994547","NA","109411.24669997953","36897.60129991919","325230.69519991986","NA","NA","325739.3117999891","NA","36942.052399972454","NA","NA","NA","NA","NA","NA","NA","NA","NA","145541.4935000008","NA","325739.5188999362","173321.887099999","325220.16529995017","NA","173313.40330000967","NA","145534.0558999451","329552.2846999811","NA","126220.55609989911","NA","NA","New experiment","31","119135.96469978802","48","1024"
"65","NA","65","2446","2446","#3d3846","psycho","NA","1","undefined","undefined","1","left","0","0","0","0","0","0","0","48","NA","0","48","NA","0","NA","NA","NA","0","NA","NA","NA","NA","NA","0","NA","48","0","48","0","0","0","0","48","0","0","0","NA","Fri Oct 27 18:21:14 2023","50","The main experiment item","yes","CogPsy_Assignment_With_Instruction.osexp","C:/Users/joaquincr/Desktop","no","mono","no","18","no","white","no","Management and Leadership","yes","768","C:/Users/joaquincr/Desktop/subject-53.csv","fake","Melodramatic Milgram","4.0.5","silver_strip","left","space","NA","NA","space","NA","left","727.9981999890879","26360.263200011104","NA","NA","26378.708299947903","NA","727.9981999890879","NA","NA","2","fake_2_50","1024","2","48000","-16","experiment","53","odd","126231.9897999987","NA","63330.11469990015","162323.45479994547","NA","109411.24669997953","36897.60129991919","329749.46019996423","NA","NA","330256.78629998583","NA","36942.052399972454","NA","NA","NA","NA","NA","NA","NA","NA","NA","145541.4935000008","NA","330257.0403999416","173321.887099999","329740.9035000019","NA","173313.40330000967","NA","145534.0558999451","330986.25219997484","NA","126220.55609989911","NA","NA","New experiment","32","119863.9628997771","49","1024"
"66","NA","66","2438","2438","#3d3846","psycho","NA","1","undefined","undefined","1","left","0","0","0","0","0","0","0","49","NA","0","49","NA","0","NA","NA","NA","0","NA","NA","NA","NA","NA","0","NA","49","0","49","0","0","0","0","49","0","0","0","NA","Fri Oct 27 18:21:14 2023","20","The main experiment item","yes","CogPsy_Assignment_With_Instruction.osexp","C:/Users/joaquincr/Desktop","no","mono","no","18","no","white","no","Management and Leadership","yes","768","C:/Users/joaquincr/Desktop/subject-53.csv","fake","Melodramatic Milgram","4.0.5","silver_strip","left","space","NA","NA","space","NA","left","2041.445399983786","26360.263200011104","NA","NA","26378.708299947903","NA","2041.445399983786","NA","NA","2","fake_2_20","1024","2","48000","-16","experiment","53","odd","126231.9897999987","NA","63330.11469990015","162323.45479994547","NA","109411.24669997953","36897.60129991919","331228.2821999397","NA","NA","331735.5542998994","NA","36942.052399972454","NA","NA","NA","NA","NA","NA","NA","NA","NA","145541.4935000008","NA","331735.76419998426","173321.887099999","331219.7680999525","NA","173313.40330000967","NA","145534.0558999451","333778.38449995033","NA","126220.55609989911","NA","NA","New experiment","33","121905.4082997609","50","1024"
"64","NA","64","2411","2411","#3d3846","psycho","NA","0","undefined","undefined","0","right","0","0","0","0","0","0","0","50","NA","0","50","NA","0","NA","NA","NA","0","NA","NA","NA","NA","NA","0","NA","50","0","50","0","0","0","0","50","0","0","0","NA","Fri Oct 27 18:21:14 2023","20","The main experiment item","yes","CogPsy_Assignment_With_Instruction.osexp","C:/Users/joaquincr/Desktop","no","mono","no","18","no","white","no","Management and Leadership","yes","768","C:/Users/joaquincr/Desktop/subject-53.csv","real","Melodramatic Milgram","4.0.5","genuine","left","space","NA","NA","space","NA","left","1057.771399966441","26360.263200011104","NA","NA","26378.708299947903","NA","1057.771399966441","NA","NA","2","real_20","1024","2","48000","-16","experiment","53","odd","126231.9897999987","NA","63330.11469990015","162323.45479994547","NA","109411.24669997953","36897.60129991919","333959.1423999518","NA","NA","334465.0454999646","NA","36942.052399972454","NA","NA","NA","NA","NA","NA","NA","NA","NA","145541.4935000008","NA","334465.2658000123","173321.887099999","333949.392599985","NA","173313.40330000967","NA","145534.0558999451","335523.92840001266","NA","126220.55609989911","NA","NA","New experiment","33","122963.17969972733","51","1024"
"65","NA","65","2410","2410","#3d3846","psycho","NA","1","undefined","undefined","1","left","0","0","0","0","0","0","0","51","NA","0","51","NA","0","NA","NA","NA","0","NA","NA","NA","NA","NA","0","NA","51","0","51","0","0","0","0","51","0","0","0","NA","Fri Oct 27 18:21:14 2023","20","The main experiment item","yes","CogPsy_Assignment_With_Instruction.osexp","C:/Users/joaquincr/Desktop","no","mono","no","18","no","white","no","Management and Leadership","yes","768","C:/Users/joaquincr/Desktop/subject-53.csv","fake","Melodramatic Milgram","4.0.5","BadInk","left","space","NA","NA","space","NA","left","2366.9600998982787","26360.263200011104","NA","NA","26378.708299947903","NA","2366.9600998982787","NA","NA","2","fake_20","1024","2","48000","-16","experiment","53","odd","126231.9897999987","NA","63330.11469990015","162323.45479994547","NA","109411.24669997953","36897.60129991919","335757.2160999989","NA","NA","336264.80239990633","NA","36942.052399972454","NA","NA","NA","NA","NA","NA","NA","NA","NA","145541.4935000008","NA","336265.1515000034","173321.887099999","335748.5448999796","NA","173313.40330000967","NA","145534.0558999451","338633.13470000867","NA","126220.55609989911","NA","NA","New experiment","34","125330.13979962561","52","1024"
"66","NA","66","2386","2386","#3d3846","psycho","NA","1","undefined","undefined","1","left","0","0","0","0","0","0","0","52","NA","0","52","NA","0","NA","NA","NA","0","NA","NA","NA","NA","NA","0","NA","52","0","52","0","0","0","0","52","0","0","0","NA","Fri Oct 27 18:21:14 2023","50","The main experiment item","yes","CogPsy_Assignment_With_Instruction.osexp","C:/Users/joaquincr/Desktop","no","mono","no","18","no","white","no","Management and Leadership","yes","768","C:/Users/joaquincr/Desktop/subject-53.csv","fake","Melodramatic Milgram","4.0.5","PurpleDenomination2","left","space","NA","NA","space","NA","left","1156.5768000436947","26360.263200011104","NA","NA","26378.708299947903","NA","1156.5768000436947","NA","NA","2","fake_2_50","1024","2","48000","-16","experiment","53","odd","126231.9897999987","NA","63330.11469990015","162323.45479994547","NA","109411.24669997953","36897.60129991919","338879.47349995375","NA","NA","339388.30019999295","NA","36942.052399972454","NA","NA","NA","NA","NA","NA","NA","NA","NA","145541.4935000008","NA","339388.62799992785","173321.887099999","338871.7888999963","NA","173313.40330000967","NA","145534.0558999451","340546.5129999211","NA","126220.55609989911","NA","NA","New experiment","35","126486.71659966931","53","1024"
"66","NA","66","2375","2375","#3d3846","psycho","NA","1","undefined","undefined","1","left","0","0","0","0","0","0","0","53","NA","0","53","NA","0","NA","NA","NA","0","NA","NA","NA","NA","NA","0","NA","53","0","53","0","0","0","0","53","0","0","0","NA","Fri Oct 27 18:21:14 2023","20","The main experiment item","yes","CogPsy_Assignment_With_Instruction.osexp","C:/Users/joaquincr/Desktop","no","mono","no","18","no","white","no","Management and Leadership","yes","768","C:/Users/joaquincr/Desktop/subject-53.csv","fake","Melodramatic Milgram","4.0.5","DullHologram","left","space","NA","NA","space","NA","left","1799.8046999564394","26360.263200011104","NA","NA","26378.708299947903","NA","1799.8046999564394","NA","NA","2","fake_20","1024","2","48000","-16","experiment","53","odd","126231.9897999987","NA","63330.11469990015","162323.45479994547","NA","109411.24669997953","36897.60129991919","340797.0925999107","NA","NA","341304.52169990167","NA","36942.052399972454","NA","NA","NA","NA","NA","NA","NA","NA","NA","145541.4935000008","NA","341304.8028999474","173321.887099999","340789.07739999704","NA","173313.40330000967","NA","145534.0558999451","343105.6474999059","NA","126220.55609989911","NA","NA","New experiment","36","128286.52129962575","54","1024"
"66","NA","66","2375","2375","#3d3846","psycho","NA","1","undefined","undefined","1","left","0","0","0","0","0","0","0","53","NA","0","53","NA","0","NA","NA","NA","0","NA","NA","NA","NA","NA","0","NA","53","0","53","0","0","0","0","53","0","0","0","NA","Fri Oct 27 18:21:14 2023","20","The main experiment item","yes","CogPsy_Assignment_With_Instruction.osexp","C:/Users/joaquincr/Desktop","no","mono","no","18","no","white","no","watermark, silver hologram stripe","yes","768","C:/Users/joaquincr/Desktop/subject-53.csv","fake","Melodramatic Milgram","4.0.5","DullHologram","watermark, silver hologram stripe","space","NA","NA","space","NA","left","1799.8046999564394","26360.263200011104","NA","NA","26378.708299947903","NA","1799.8046999564394","NA","NA","2","fake_20","1024","2","48000","-16","experiment","53","odd","126231.9897999987","NA","63330.11469990015","162323.45479994547","NA","109411.24669997953","36897.60129991919","340797.0925999107","NA","NA","341304.52169990167","NA","36942.052399972454","NA","NA","NA","363071.3745999383","NA","NA","NA","NA","NA","145541.4935000008","NA","341304.8028999474","173321.887099999","340789.07739999704","NA","173313.40330000967","343226.594000007","145534.0558999451","343105.6474999059","NA","126220.55609989911","NA","NA","New experiment","36","128286.52129962575","54","1024"
"66","NA","66","2375","2375","#3d3846","psycho","NA","1","undefined","undefined","1","left","0","0","0","0","0","0","0","53","NA","0","53","NA","0","NA","NA","NA","0","NA","NA","NA","NA","NA","0","NA","53","0","53","0","0","0","0","53","0","0","0","NA","Fri Oct 27 18:21:14 2023","20","The main experiment item","yes","CogPsy_Assignment_With_Instruction.osexp","C:/Users/joaquincr/Desktop","no","mono","no","18","no","white","no","Ok","yes","768","C:/Users/joaquincr/Desktop/subject-53.csv","fake","Melodramatic Milgram","4.0.5","DullHologram","Silver strip (security thread);Watermark;Ink quality","space","NA","NA","space","NA","left","1799.8046999564394","26360.263200011104","NA","NA","26378.708299947903","NA","1799.8046999564394","NA","NA","2","fake_20","1024","2","48000","-16","experiment","53","odd","126231.9897999987","NA","63330.11469990015","162323.45479994547","NA","109411.24669997953","36897.60129991919","340797.0925999107","NA","NA","341304.52169990167","NA","36942.052399972454","NA","NA","NA","363071.3745999383","NA","NA","NA","NA","NA","145541.4935000008","NA","341304.8028999474","173321.887099999","340789.07739999704","NA","173313.40330000967","343226.594000007","145534.0558999451","343105.6474999059","NA","126220.55609989911","376465.5155999353","NA","New experiment","36","128286.52129962575","54","1024"
