"acc","accept_status","accuracy","average_response_time","avg_rt","background","canvas_backend","checkbox_status","correct","correct_consent_sketchpad","correct_instruction_sketchpad","correct_new_keyboard_response","correct_response","count_age_form","count_checkbox_security_form","count_consent_sketchpad","count_country_logger","count_eurozone_form","count_eurozone_logger","count_experiment","count_fixation_dots","count_getting_started","count_goodbye_sketchpad","count_images_sketchpad","count_information_display_sketchpad","count_instruction_sketchpad","count_new_1_form_base","count_new_1_form_text_input","count_new_1_sketchpad","count_new_2_logger","count_new_4_form_multiple_choice","count_new_form_base","count_new_form_consent","count_new_form_multiple_choice","count_new_form_text_display","count_new_form_text_input","count_new_inline_script","count_new_keyboard_response","count_new_loop","count_new_sequence","count_occupation_form","count_occupation_logger","count_open_security_input_form","count_personal_data_logger","count_response_logger","count_schooling_level_form","count_schooling_logger","count_security_feature_logger","count_welcome","datetime","denomination","description","disable_garbage_collection","experiment_file","experiment_path","font_bold","font_family","font_italic","font_size","font_underline","foreground","form_clicks","form_response","fullscreen","height","logfile","note_type","opensesame_codename","opensesame_version","reason","response","response_consent_sketchpad","response_goodbye_sketchpad","response_information_display_sketchpad","response_instruction_sketchpad","response_new_1_sketchpad","response_new_keyboard_response","response_time","response_time_consent_sketchpad","response_time_goodbye_sketchpad","response_time_information_display_sketchpad","response_time_instruction_sketchpad","response_time_new_1_sketchpad","response_time_new_keyboard_response","response_time_welcome","response_welcome","round_decimals","show","sound_buf_size","sound_channels","sound_freq","sound_sample_size","start","subject_nr","subject_parity","time_age_form","time_checkbox_security_form","time_consent_sketchpad","time_country_logger","time_eurozone_form","time_eurozone_logger","time_experiment","time_fixation_dots","time_getting_started","time_goodbye_sketchpad","time_images_sketchpad","time_information_display_sketchpad","time_instruction_sketchpad","time_new_1_form_base","time_new_1_form_text_input","time_new_1_sketchpad","time_new_2_logger","time_new_4_form_multiple_choice","time_new_form_base","time_new_form_consent","time_new_form_multiple_choice","time_new_form_text_display","time_new_form_text_input","time_new_inline_script","time_new_keyboard_response","time_new_loop","time_new_sequence","time_occupation_form","time_occupation_logger","time_open_security_input_form","time_personal_data_logger","time_response_logger","time_schooling_level_form","time_schooling_logger","time_security_feature_logger","time_welcome","title","total_correct","total_response_time","total_responses","width"
"undefined","NA","undefined","undefined","undefined","#3d3846","psycho","NA","undefined","undefined","undefined","NA","NA","0","0","0","0","0","0","0","NA","NA","0","NA","0","0","NA","NA","NA","0","NA","NA","NA","NA","NA","0","NA","NA","0","NA","0","0","0","0","NA","0","0","0","NA","Thu Oct 26 17:05:30 2023","NA","The main experiment item","yes","CogPsy_Assignment_With_Instruction.osexp","C:\Users\ilinc\Downloads","no","mono","no","18","no","white","no","Yes","yes","768","C:/Users/ilinc/OneDrive/Desktop/subject-0.csv","NA","Melodramatic Milgram","4.0.5","NA","Yes","space","NA","NA","space","NA","NA","1490.9220999106765","1490.9220999106765","NA","NA","2325.011699926108","NA","NA","NA","NA","2","NA","1024","2","48000","-16","experiment","0","even","NA","NA","13112.559200264513","NA","NA","39656.39130026102","10742.842300329357","NA","NA","NA","NA","NA","10782.69200026989","NA","NA","NA","NA","NA","NA","NA","NA","NA","NA","NA","NA","NA","NA","NA","NA","NA","NA","NA","NA","NA","NA","NA","New experiment","0","0","0","1024"
"undefined","NA","undefined","undefined","undefined","#3d3846","psycho","NA","undefined","undefined","undefined","NA","NA","0","0","0","0","0","0","0","NA","NA","0","NA","0","0","NA","NA","NA","0","NA","NA","NA","NA","NA","0","NA","NA","0","NA","0","0","0","0","NA","0","0","0","NA","Thu Oct 26 17:05:30 2023","NA","The main experiment item","yes","CogPsy_Assignment_With_Instruction.osexp","C:\Users\ilinc\Downloads","no","mono","no","18","no","white","no","Bachelors","yes","768","C:/Users/ilinc/OneDrive/Desktop/subject-0.csv","NA","Melodramatic Milgram","4.0.5","NA","Bachelors","space","NA","NA","space","NA","NA","1490.9220999106765","1490.9220999106765","NA","NA","2325.011699926108","NA","NA","NA","NA","2","NA","1024","2","48000","-16","experiment","0","even","NA","NA","13112.559200264513","NA","NA","39656.39130026102","10742.842300329357","NA","NA","NA","NA","NA","10782.69200026989","NA","NA","NA","NA","NA","NA","NA","NA","NA","NA","NA","NA","NA","NA","NA","NA","NA","NA","NA","NA","41485.33200006932","NA","NA","New experiment","0","0","0","1024"
"undefined","NA","undefined","undefined","undefined","#3d3846","psycho","NA","undefined","undefined","undefined","NA","NA","0","0","0","0","0","0","0","NA","NA","0","NA","0","0","NA","NA","NA","0","NA","NA","NA","NA","NA","0","NA","NA","0","NA","0","0","0","0","NA","0","0","0","NA","Thu Oct 26 17:05:30 2023","NA","The main experiment item","yes","CogPsy_Assignment_With_Instruction.osexp","C:\Users\ilinc\Downloads","no","mono","no","18","no","white","no","23","yes","768","C:/Users/ilinc/OneDrive/Desktop/subject-0.csv","NA","Melodramatic Milgram","4.0.5","NA","23","space","NA","NA","space","NA","NA","1490.9220999106765","1490.9220999106765","NA","NA","2325.011699926108","NA","NA","NA","NA","2","NA","1024","2","48000","-16","experiment","0","even","41488.50640002638","NA","13112.559200264513","NA","NA","39656.39130026102","10742.842300329357","NA","NA","NA","NA","NA","10782.69200026989","NA","NA","NA","NA","NA","NA","NA","NA","NA","NA","NA","NA","NA","NA","NA","NA","NA","43315.783800091594","NA","NA","41485.33200006932","NA","NA","New experiment","0","0","0","1024"
"undefined","NA","undefined","undefined","undefined","#3d3846","psycho","NA","undefined","undefined","undefined","NA","NA","0","0","0","0","0","0","0","NA","NA","0","NA","0","0","NA","NA","NA","0","NA","NA","NA","NA","NA","0","NA","NA","0","NA","0","0","0","0","NA","0","0","0","NA","Thu Oct 26 17:05:30 2023","NA","The main experiment item","yes","CogPsy_Assignment_With_Instruction.osexp","C:\Users\ilinc\Downloads","no","mono","no","18","no","white","no","Romanian","yes","768","C:/Users/ilinc/OneDrive/Desktop/subject-0.csv","NA","Melodramatic Milgram","4.0.5","NA","Romanian","space","NA","NA","space","NA","NA","1490.9220999106765","1490.9220999106765","NA","NA","2325.011699926108","NA","NA","NA","NA","2","NA","1024","2","48000","-16","experiment","0","even","41488.50640002638","NA","13112.559200264513","46074.724399950355","NA","39656.39130026102","10742.842300329357","NA","NA","NA","NA","NA","10782.69200026989","NA","NA","NA","NA","NA","NA","NA","NA","NA","43363.63960010931","NA","NA","NA","NA","NA","NA","NA","43315.783800091594","NA","NA","41485.33200006932","NA","NA","New experiment","0","0","0","1024"
"undefined","NA","undefined","undefined","undefined","#3d3846","psycho","NA","undefined","undefined","undefined","NA","NA","0","0","0","0","0","0","0","NA","NA","0","NA","0","0","NA","NA","NA","0","NA","NA","NA","NA","NA","0","NA","NA","0","NA","0","0","0","0","NA","0","0","0","NA","Thu Oct 26 17:05:30 2023","NA","The main experiment item","yes","CogPsy_Assignment_With_Instruction.osexp","C:\Users\ilinc\Downloads","no","mono","no","18","no","white","no","Student","yes","768","C:/Users/ilinc/OneDrive/Desktop/subject-0.csv","NA","Melodramatic Milgram","4.0.5","NA","Student","space","NA","NA","space","NA","NA","1490.9220999106765","1490.9220999106765","NA","NA","2325.011699926108","NA","NA","NA","NA","2","NA","1024","2","48000","-16","experiment","0","even","41488.50640002638","NA","13112.559200264513","46074.724399950355","NA","39656.39130026102","10742.842300329357","NA","NA","NA","NA","NA","10782.69200026989","NA","NA","NA","NA","NA","NA","NA","NA","NA","43363.63960010931","NA","NA","NA","NA","NA","48263.84619995952","NA","43315.783800091594","NA","NA","41485.33200006932","NA","NA","New experiment","0","0","0","1024"
"100","NA","100","5647","5647","#3d3846","psycho","NA","1","undefined","undefined","1","right","0","0","0","0","0","0","0","0","NA","0","0","0","0","NA","NA","NA","0","NA","NA","NA","NA","NA","0","NA","0","0","0","0","0","0","0","0","0","0","0","NA","Thu Oct 26 17:05:30 2023","50","The main experiment item","yes","CogPsy_Assignment_With_Instruction.osexp","C:\Users\ilinc\Downloads","no","mono","no","18","no","white","no","Student","yes","768","C:/Users/ilinc/OneDrive/Desktop/subject-0.csv","real","Melodramatic Milgram","4.0.5","photo_2","right","space","NA","space","space","NA","right","5647.199699655175","1490.9220999106765","NA","27069.294600281864","2325.011699926108","NA","5647.199699655175","NA","NA","2","real_50","1024","2","48000","-16","experiment","0","even","41488.50640002638","NA","13112.559200264513","46074.724399950355","NA","39656.39130026102","10742.842300329357","75503.55979986489","NA","NA","76012.06930028275","48319.733399897814","10782.69200026989","NA","NA","NA","NA","NA","NA","NA","NA","NA","43363.63960010931","NA","76012.36300030723","75389.60860017687","75497.95380001888","NA","48263.84619995952","NA","43315.783800091594","81660.04460025579","NA","41485.33200006932","NA","NA","New experiment","1","5647.199699655175","1","1024"
"100","NA","100","3519","3519","#3d3846","psycho","NA","1","undefined","undefined","1","left","0","0","0","0","0","0","0","1","NA","0","1","0","0","NA","NA","NA","0","NA","NA","NA","NA","NA","0","NA","1","0","1","0","0","0","0","1","0","0","0","NA","Thu Oct 26 17:05:30 2023","50","The main experiment item","yes","CogPsy_Assignment_With_Instruction.osexp","C:\Users\ilinc\Downloads","no","mono","no","18","no","white","no","Student","yes","768","C:/Users/ilinc/OneDrive/Desktop/subject-0.csv","fake","Melodramatic Milgram","4.0.5","PurpleDenomination2","left","space","NA","space","space","NA","left","1391.3906998932362","1490.9220999106765","NA","27069.294600281864","2325.011699926108","NA","1391.3906998932362","NA","NA","2","fake_2_50","1024","2","48000","-16","experiment","0","even","41488.50640002638","NA","13112.559200264513","46074.724399950355","NA","39656.39130026102","10742.842300329357","82111.6733001545","NA","NA","82616.7441001162","48319.733399897814","10782.69200026989","NA","NA","NA","NA","NA","NA","NA","NA","NA","43363.63960010931","NA","82616.97610002011","75389.60860017687","82106.20300006121","NA","48263.84619995952","NA","43315.783800091594","84008.92780022696","NA","41485.33200006932","NA","NA","New experiment","2","7038.590399548411","2","1024"
"66","NA","66","2730","2730","#3d3846","psycho","NA","0","undefined","undefined","0","right","0","0","0","0","0","0","0","2","NA","0","2","0","0","NA","NA","NA","0","NA","NA","NA","NA","NA","0","NA","2","0","2","0","0","0","0","2","0","0","0","NA","Thu Oct 26 17:05:30 2023","50","The main experiment item","yes","CogPsy_Assignment_With_Instruction.osexp","C:\Users\ilinc\Downloads","no","mono","no","18","no","white","no","Student","yes","768","C:/Users/ilinc/OneDrive/Desktop/subject-0.csv","real","Melodramatic Milgram","4.0.5","photo","left","space","NA","space","space","NA","left","1153.061400167644","1490.9220999106765","NA","27069.294600281864","2325.011699926108","NA","1153.061400167644","NA","NA","2","real_50","1024","2","48000","-16","experiment","0","even","41488.50640002638","NA","13112.559200264513","46074.724399950355","NA","39656.39130026102","10742.842300329357","84270.60130005702","NA","NA","84775.69389995188","48319.733399897814","10782.69200026989","NA","NA","NA","NA","NA","NA","NA","NA","NA","43363.63960010931","NA","84775.91129997745","75389.60860017687","84265.36770025268","NA","48263.84619995952","NA","43315.783800091594","85929.41270023584","NA","41485.33200006932","NA","NA","New experiment","2","8191.651799716055","3","1024"
"50","NA","50","3852","3852","#3d3846","psycho","NA","0","undefined","undefined","0","right","0","0","0","0","0","0","0","3","NA","0","3","0","0","NA","NA","NA","0","NA","NA","NA","NA","NA","0","NA","3","0","3","0","0","0","0","3","0","0","0","NA","Thu Oct 26 17:05:30 2023","20","The main experiment item","yes","CogPsy_Assignment_With_Instruction.osexp","C:\Users\ilinc\Downloads","no","mono","no","18","no","white","no","Student","yes","768","C:/Users/ilinc/OneDrive/Desktop/subject-0.csv","real","Melodramatic Milgram","4.0.5","genuine","left","space","NA","space","space","NA","left","7219.750799704343","1490.9220999106765","NA","27069.294600281864","2325.011699926108","NA","7219.750799704343","NA","NA","2","real_20","1024","2","48000","-16","experiment","0","even","41488.50640002638","NA","13112.559200264513","46074.724399950355","NA","39656.39130026102","10742.842300329357","86175.4375002347","NA","NA","86680.37339998409","48319.733399897814","10782.69200026989","NA","NA","NA","NA","NA","NA","NA","NA","NA","43363.63960010931","NA","86680.61490030959","75389.60860017687","86170.03499995917","NA","48263.84619995952","NA","43315.783800091594","93900.89619997889","NA","41485.33200006932","NA","NA","New experiment","2","15411.402599420398","4","1024"
"40","NA","40","3561","3561","#3d3846","psycho","NA","0","undefined","undefined","0","left","0","0","0","0","0","0","0","4","NA","0","4","0","0","NA","NA","NA","0","NA","NA","NA","NA","NA","0","NA","4","0","4","0","0","0","0","4","0","0","0","NA","Thu Oct 26 17:05:30 2023","20","The main experiment item","yes","CogPsy_Assignment_With_Instruction.osexp","C:\Users\ilinc\Downloads","no","mono","no","18","no","white","no","Student","yes","768","C:/Users/ilinc/OneDrive/Desktop/subject-0.csv","fake","Melodramatic Milgram","4.0.5","PurpleDenomination","right","space","NA","space","space","NA","right","2397.1124002709985","1490.9220999106765","NA","27069.294600281864","2325.011699926108","NA","2397.1124002709985","NA","NA","2","fake_20","1024","2","48000","-16","experiment","0","even","41488.50640002638","NA","13112.559200264513","46074.724399950355","NA","39656.39130026102","10742.842300329357","94169.03629992157","NA","NA","94674.49219990522","48319.733399897814","10782.69200026989","NA","NA","NA","NA","NA","NA","NA","NA","NA","43363.63960010931","NA","94674.71679998562","75389.60860017687","94163.48979994655","NA","48263.84619995952","NA","43315.783800091594","97072.28389987722","NA","41485.33200006932","NA","NA","New experiment","2","17808.514999691397","5","1024"
"50","NA","50","3803","3803","#3d3846","psycho","NA","1","undefined","undefined","1","left","0","0","0","0","0","0","0","5","NA","0","5","0","0","NA","NA","NA","0","NA","NA","NA","NA","NA","0","NA","5","0","5","0","0","0","0","5","0","0","0","NA","Thu Oct 26 17:05:30 2023","50","The main experiment item","yes","CogPsy_Assignment_With_Instruction.osexp","C:\Users\ilinc\Downloads","no","mono","no","18","no","white","no","Student","yes","768","C:/Users/ilinc/OneDrive/Desktop/subject-0.csv","fake","Melodramatic Milgram","4.0.5","silver_strip","left","space","NA","space","space","NA","left","5009.76449996233","1490.9220999106765","NA","27069.294600281864","2325.011699926108","NA","5009.76449996233","NA","NA","2","fake_2_50","1024","2","48000","-16","experiment","0","even","41488.50640002638","NA","13112.559200264513","46074.724399950355","NA","39656.39130026102","10742.842300329357","97343.12390023842","NA","NA","97848.6138000153","48319.733399897814","10782.69200026989","NA","NA","NA","NA","NA","NA","NA","NA","NA","43363.63960010931","NA","97848.85630011559","75389.60860017687","97336.95239992812","NA","48263.84619995952","NA","43315.783800091594","102859.23240007833","NA","41485.33200006932","NA","NA","New experiment","3","22818.279499653727","6","1024"
"57","NA","57","3765","3765","#3d3846","psycho","NA","1","undefined","undefined","1","left","0","0","0","0","0","0","0","6","NA","0","6","0","0","NA","NA","NA","0","NA","NA","NA","NA","NA","0","NA","6","0","6","0","0","0","0","6","0","0","0","NA","Thu Oct 26 17:05:30 2023","20","The main experiment item","yes","CogPsy_Assignment_With_Instruction.osexp","C:\Users\ilinc\Downloads","no","mono","no","18","no","white","no","Student","yes","768","C:/Users/ilinc/OneDrive/Desktop/subject-0.csv","fake","Melodramatic Milgram","4.0.5","bottom_left","left","space","NA","space","space","NA","left","3537.4976000748575","1490.9220999106765","NA","27069.294600281864","2325.011699926108","NA","3537.4976000748575","NA","NA","2","fake_1_20","1024","2","48000","-16","experiment","0","even","41488.50640002638","NA","13112.559200264513","46074.724399950355","NA","39656.39130026102","10742.842300329357","103166.885800194","NA","NA","103672.21810016781","48319.733399897814","10782.69200026989","NA","NA","NA","NA","NA","NA","NA","NA","NA","43363.63960010931","NA","103672.42320021614","75389.60860017687","103113.71110007167","NA","48263.84619995952","NA","43315.783800091594","107210.56210016832","NA","41485.33200006932","NA","NA","New experiment","4","26355.777099728584","7","1024"
"62","NA","62","3673","3673","#3d3846","psycho","NA","1","undefined","undefined","1","left","0","0","0","0","0","0","0","7","NA","0","7","0","0","NA","NA","NA","0","NA","NA","NA","NA","NA","0","NA","7","0","7","0","0","0","0","7","0","0","0","NA","Thu Oct 26 17:05:30 2023","20","The main experiment item","yes","CogPsy_Assignment_With_Instruction.osexp","C:\Users\ilinc\Downloads","no","mono","no","18","no","white","no","Student","yes","768","C:/Users/ilinc/OneDrive/Desktop/subject-0.csv","fake","Melodramatic Milgram","4.0.5","DullHologram2","left","space","NA","space","space","NA","left","3033.3981001749635","1490.9220999106765","NA","27069.294600281864","2325.011699926108","NA","3033.3981001749635","NA","NA","2","fake_20","1024","2","48000","-16","experiment","0","even","41488.50640002638","NA","13112.559200264513","46074.724399950355","NA","39656.39130026102","10742.842300329357","107440.1565999724","NA","NA","107945.9004001692","48319.733399897814","10782.69200026989","NA","NA","NA","NA","NA","NA","NA","NA","NA","43363.63960010931","NA","107946.15569990128","75389.60860017687","107435.15710020438","NA","48263.84619995952","NA","43315.783800091594","110979.98890001327","NA","41485.33200006932","NA","NA","New experiment","5","29389.175199903548","8","1024"
"66","NA","66","3401","3401","#3d3846","psycho","NA","1","undefined","undefined","1","left","0","0","0","0","0","0","0","8","NA","0","8","0","0","NA","NA","NA","0","NA","NA","NA","NA","NA","0","NA","8","0","8","0","0","0","0","8","0","0","0","NA","Thu Oct 26 17:05:30 2023","50","The main experiment item","yes","CogPsy_Assignment_With_Instruction.osexp","C:\Users\ilinc\Downloads","no","mono","no","18","no","white","no","Student","yes","768","C:/Users/ilinc/OneDrive/Desktop/subject-0.csv","fake","Melodramatic Milgram","4.0.5","PurpleDenomination2","left","space","NA","space","space","NA","left","1220.7126999273896","1490.9220999106765","NA","27069.294600281864","2325.011699926108","NA","1220.7126999273896","NA","NA","2","fake_2_50","1024","2","48000","-16","experiment","0","even","41488.50640002638","NA","13112.559200264513","46074.724399950355","NA","39656.39130026102","10742.842300329357","111252.72280024365","NA","NA","111759.75010031834","48319.733399897814","10782.69200026989","NA","NA","NA","NA","NA","NA","NA","NA","NA","43363.63960010931","NA","111760.03490015864","75389.60860017687","111247.46510013938","NA","48263.84619995952","NA","43315.783800091594","112981.31120018661","NA","41485.33200006932","NA","NA","New experiment","6","30609.887899830937","9","1024"
"60","NA","60","3913","3913","#3d3846","psycho","NA","0","undefined","undefined","0","right","0","0","0","0","0","0","0","9","NA","0","9","0","0","NA","NA","NA","0","NA","NA","NA","NA","NA","0","NA","9","0","9","0","0","0","0","9","0","0","0","NA","Thu Oct 26 17:05:30 2023","50","The main experiment item","yes","CogPsy_Assignment_With_Instruction.osexp","C:\Users\ilinc\Downloads","no","mono","no","18","no","white","no","Student","yes","768","C:/Users/ilinc/OneDrive/Desktop/subject-0.csv","real","Melodramatic Milgram","4.0.5","photo","left","space","NA","space","space","NA","left","8527.861999813467","1490.9220999106765","NA","27069.294600281864","2325.011699926108","NA","8527.861999813467","NA","NA","2","real_50","1024","2","48000","-16","experiment","0","even","41488.50640002638","NA","13112.559200264513","46074.724399950355","NA","39656.39130026102","10742.842300329357","113236.35100014508","NA","NA","113744.05000032857","48319.733399897814","10782.69200026989","NA","NA","NA","NA","NA","NA","NA","NA","NA","43363.63960010931","NA","113744.44290017709","75389.60860017687","113231.07820004225","NA","48263.84619995952","NA","43315.783800091594","122272.80110027641","NA","41485.33200006932","NA","NA","New experiment","6","39137.749899644405","10","1024"
"63","NA","63","3820","3820","#3d3846","psycho","NA","1","undefined","undefined","1","left","0","0","0","0","0","0","0","10","NA","0","10","0","0","NA","NA","NA","0","NA","NA","NA","NA","NA","0","NA","10","0","10","0","0","0","0","10","0","0","0","NA","Thu Oct 26 17:05:30 2023","50","The main experiment item","yes","CogPsy_Assignment_With_Instruction.osexp","C:\Users\ilinc\Downloads","no","mono","no","18","no","white","no","Student","yes","768","C:/Users/ilinc/OneDrive/Desktop/subject-0.csv","fake","Melodramatic Milgram","4.0.5","PurpleDenomination3","left","space","NA","space","space","NA","left","2890.237799845636","1490.9220999106765","NA","27069.294600281864","2325.011699926108","NA","2890.237799845636","NA","NA","2","fake_2_50","1024","2","48000","-16","experiment","0","even","41488.50640002638","NA","13112.559200264513","46074.724399950355","NA","39656.39130026102","10742.842300329357","122502.42060003802","NA","NA","123008.45280010253","48319.733399897814","10782.69200026989","NA","NA","NA","NA","NA","NA","NA","NA","NA","43363.63960010931","NA","123008.73650005087","75389.60860017687","122496.7147000134","NA","48263.84619995952","NA","43315.783800091594","125899.49390012771","NA","41485.33200006932","NA","NA","New experiment","7","42027.98769949004","11","1024"
"66","NA","66","3736","3736","#3d3846","psycho","NA","1","undefined","undefined","1","left","0","0","0","0","0","0","0","11","NA","0","11","0","0","NA","NA","NA","0","NA","NA","NA","NA","NA","0","NA","11","0","11","0","0","0","0","11","0","0","0","NA","Thu Oct 26 17:05:30 2023","50","The main experiment item","yes","CogPsy_Assignment_With_Instruction.osexp","C:\Users\ilinc\Downloads","no","mono","no","18","no","white","no","Student","yes","768","C:/Users/ilinc/OneDrive/Desktop/subject-0.csv","fake","Melodramatic Milgram","4.0.5","BadInk","left","space","NA","space","space","NA","left","2807.366699911654","1490.9220999106765","NA","27069.294600281864","2325.011699926108","NA","2807.366699911654","NA","NA","2","fake_2_50","1024","2","48000","-16","experiment","0","even","41488.50640002638","NA","13112.559200264513","46074.724399950355","NA","39656.39130026102","10742.842300329357","126184.84470015392","NA","NA","126691.41070032492","48319.733399897814","10782.69200026989","NA","NA","NA","NA","NA","NA","NA","NA","NA","43363.63960010931","NA","126691.75969995558","75389.60860017687","126179.34030015022","NA","48263.84619995952","NA","43315.783800091594","129499.7070999816","NA","41485.33200006932","NA","NA","New experiment","8","44835.354399401695","12","1024"
"61","NA","61","3556","3556","#3d3846","psycho","NA","0","undefined","undefined","0","left","0","0","0","0","0","0","0","12","NA","0","12","0","0","NA","NA","NA","0","NA","NA","NA","NA","NA","0","NA","12","0","12","0","0","0","0","12","0","0","0","NA","Thu Oct 26 17:05:30 2023","20","The main experiment item","yes","CogPsy_Assignment_With_Instruction.osexp","C:\Users\ilinc\Downloads","no","mono","no","18","no","white","no","Student","yes","768","C:/Users/ilinc/OneDrive/Desktop/subject-0.csv","fake","Melodramatic Milgram","4.0.5","bottom_left","right","space","NA","space","space","NA","right","1396.5712999925017","1490.9220999106765","NA","27069.294600281864","2325.011699926108","NA","1396.5712999925017","NA","NA","2","fake_1_20","1024","2","48000","-16","experiment","0","even","41488.50640002638","NA","13112.559200264513","46074.724399950355","NA","39656.39130026102","10742.842300329357","129756.00210018456","NA","NA","130262.83580018207","48319.733399897814","10782.69200026989","NA","NA","NA","NA","NA","NA","NA","NA","NA","43363.63960010931","NA","130263.1315998733","75389.60860017687","129750.48540020362","NA","48263.84619995952","NA","43315.783800091594","131660.28890013695","NA","41485.33200006932","NA","NA","New experiment","8","46231.925699394196","13","1024"
"64","NA","64","3413","3413","#3d3846","psycho","NA","1","undefined","undefined","1","left","0","0","0","0","0","0","0","13","NA","0","13","0","0","NA","NA","NA","0","NA","NA","NA","NA","NA","0","NA","13","0","13","0","0","0","0","13","0","0","0","NA","Thu Oct 26 17:05:30 2023","50","The main experiment item","yes","CogPsy_Assignment_With_Instruction.osexp","C:\Users\ilinc\Downloads","no","mono","no","18","no","white","no","Student","yes","768","C:/Users/ilinc/OneDrive/Desktop/subject-0.csv","fake","Melodramatic Milgram","4.0.5","bottom_left","left","space","NA","space","space","NA","left","1561.6667000576854","1490.9220999106765","NA","27069.294600281864","2325.011699926108","NA","1561.6667000576854","NA","NA","2","fake_1_50","1024","2","48000","-16","experiment","0","even","41488.50640002638","NA","13112.559200264513","46074.724399950355","NA","39656.39130026102","10742.842300329357","131948.34440015256","NA","NA","132455.62970032915","48319.733399897814","10782.69200026989","NA","NA","NA","NA","NA","NA","NA","NA","NA","43363.63960010931","NA","132455.95610002056","75389.60860017687","131942.63119995594","NA","48263.84619995952","NA","43315.783800091594","134018.217000179","NA","41485.33200006932","NA","NA","New experiment","9","47793.59239945188","14","1024"
"66","NA","66","3321","3321","#3d3846","psycho","NA","1","undefined","undefined","1","right","0","0","0","0","0","0","0","14","NA","0","14","0","0","NA","NA","NA","0","NA","NA","NA","NA","NA","0","NA","14","0","14","0","0","0","0","14","0","0","0","NA","Thu Oct 26 17:05:30 2023","20","The main experiment item","yes","CogPsy_Assignment_With_Instruction.osexp","C:\Users\ilinc\Downloads","no","mono","no","18","no","white","no","Student","yes","768","C:/Users/ilinc/OneDrive/Desktop/subject-0.csv","real","Melodramatic Milgram","4.0.5","photo","right","space","NA","space","space","NA","right","2033.4271998144686","1490.9220999106765","NA","27069.294600281864","2325.011699926108","NA","2033.4271998144686","NA","NA","2","real_20","1024","2","48000","-16","experiment","0","even","41488.50640002638","NA","13112.559200264513","46074.724399950355","NA","39656.39130026102","10742.842300329357","134371.8067998998","NA","NA","134876.8180999905","48319.733399897814","10782.69200026989","NA","NA","NA","NA","NA","NA","NA","NA","NA","43363.63960010931","NA","134877.02800007537","75389.60860017687","134366.38429993764","NA","48263.84619995952","NA","43315.783800091594","136910.96720006317","NA","41485.33200006932","NA","NA","New experiment","10","49827.01959926635","15","1024"
"68","NA","68","3210","3210","#3d3846","psycho","NA","1","undefined","undefined","1","left","0","0","0","0","0","0","0","15","NA","0","15","0","0","NA","NA","NA","0","NA","NA","NA","NA","NA","0","NA","15","0","15","0","0","0","0","15","0","0","0","NA","Thu Oct 26 17:05:30 2023","20","The main experiment item","yes","CogPsy_Assignment_With_Instruction.osexp","C:\Users\ilinc\Downloads","no","mono","no","18","no","white","no","Student","yes","768","C:/Users/ilinc/OneDrive/Desktop/subject-0.csv","fake","Melodramatic Milgram","4.0.5","NoNumOnThread_BlurryWatermark","left","space","NA","space","space","NA","left","1546.5792999602854","1490.9220999106765","NA","27069.294600281864","2325.011699926108","NA","1546.5792999602854","NA","NA","2","fake_20","1024","2","48000","-16","experiment","0","even","41488.50640002638","NA","13112.559200264513","46074.724399950355","NA","39656.39130026102","10742.842300329357","137205.0014999695","NA","NA","137710.20819991827","48319.733399897814","10782.69200026989","NA","NA","NA","NA","NA","NA","NA","NA","NA","43363.63960010931","NA","137710.40670014918","75389.60860017687","137198.96960025653","NA","48263.84619995952","NA","43315.783800091594","139257.55179999396","NA","41485.33200006932","NA","NA","New experiment","11","51373.598899226636","16","1024"
"64","NA","64","3162","3162","#3d3846","psycho","NA","0","undefined","undefined","0","left","0","0","0","0","0","0","0","16","NA","0","16","0","0","NA","NA","NA","0","NA","NA","NA","NA","NA","0","NA","16","0","16","0","0","0","0","16","0","0","0","NA","Thu Oct 26 17:05:30 2023","20","The main experiment item","yes","CogPsy_Assignment_With_Instruction.osexp","C:\Users\ilinc\Downloads","no","mono","no","18","no","white","no","Student","yes","768","C:/Users/ilinc/OneDrive/Desktop/subject-0.csv","fake","Melodramatic Milgram","4.0.5","BrownDenomination","right","space","NA","space","space","NA","right","2382.350000087172","1490.9220999106765","NA","27069.294600281864","2325.011699926108","NA","2382.350000087172","NA","NA","2","fake_20","1024","2","48000","-16","experiment","0","even","41488.50640002638","NA","13112.559200264513","46074.724399950355","NA","39656.39130026102","10742.842300329357","139470.36979999393","NA","NA","139976.18180001155","48319.733399897814","10782.69200026989","NA","NA","NA","NA","NA","NA","NA","NA","NA","43363.63960010931","NA","139976.41899995506","75389.60860017687","139465.37430025637","NA","48263.84619995952","NA","43315.783800091594","142359.44580007344","NA","41485.33200006932","NA","NA","New experiment","11","53755.94889931381","17","1024"
"66","NA","66","3126","3126","#3d3846","psycho","NA","1","undefined","undefined","1","left","0","0","0","0","0","0","0","17","NA","0","17","0","0","NA","NA","NA","0","NA","NA","NA","NA","NA","0","NA","17","0","17","0","0","0","0","17","0","0","0","NA","Thu Oct 26 17:05:30 2023","20","The main experiment item","yes","CogPsy_Assignment_With_Instruction.osexp","C:\Users\ilinc\Downloads","no","mono","no","18","no","white","no","Student","yes","768","C:/Users/ilinc/OneDrive/Desktop/subject-0.csv","fake","Melodramatic Milgram","4.0.5","BadInk2","left","space","NA","space","space","NA","left","2526.950200088322","1490.9220999106765","NA","27069.294600281864","2325.011699926108","NA","2526.950200088322","NA","NA","2","fake_20","1024","2","48000","-16","experiment","0","even","41488.50640002638","NA","13112.559200264513","46074.724399950355","NA","39656.39130026102","10742.842300329357","142576.30359986797","NA","NA","143081.102500204","48319.733399897814","10782.69200026989","NA","NA","NA","NA","NA","NA","NA","NA","NA","43363.63960010931","NA","143081.4235000871","75389.60860017687","142571.0036000237","NA","48263.84619995952","NA","43315.783800091594","145608.97669987753","NA","41485.33200006932","NA","NA","New experiment","12","56282.89909940213","18","1024"
"68","NA","68","3554","3554","#3d3846","psycho","NA","1","undefined","undefined","1","left","0","0","0","0","0","0","0","18","NA","0","18","0","0","NA","NA","NA","0","NA","NA","NA","NA","NA","0","NA","18","0","18","0","0","0","0","18","0","0","0","NA","Thu Oct 26 17:05:30 2023","20","The main experiment item","yes","CogPsy_Assignment_With_Instruction.osexp","C:\Users\ilinc\Downloads","no","mono","no","18","no","white","no","Student","yes","768","C:/Users/ilinc/OneDrive/Desktop/subject-0.csv","fake","Melodramatic Milgram","4.0.5","BrownDenomination","left","space","NA","space","space","NA","left","11248.890200164169","1490.9220999106765","NA","27069.294600281864","2325.011699926108","NA","11248.890200164169","NA","NA","2","fake_20","1024","2","48000","-16","experiment","0","even","41488.50640002638","NA","13112.559200264513","46074.724399950355","NA","39656.39130026102","10742.842300329357","145809.25340019166","NA","NA","146314.7984999232","48319.733399897814","10782.69200026989","NA","NA","NA","NA","NA","NA","NA","NA","NA","43363.63960010931","NA","146315.03390008584","75389.60860017687","145803.9971999824","NA","48263.84619995952","NA","43315.783800091594","157564.5938999951","NA","41485.33200006932","NA","NA","New experiment","13","67531.7892995663","19","1024"
"65","NA","65","3733","3733","#3d3846","psycho","NA","0","undefined","undefined","0","right","0","0","0","0","0","0","0","19","NA","0","19","0","0","NA","NA","NA","0","NA","NA","NA","NA","NA","0","NA","19","0","19","0","0","0","0","19","0","0","0","NA","Thu Oct 26 17:05:30 2023","50","The main experiment item","yes","CogPsy_Assignment_With_Instruction.osexp","C:\Users\ilinc\Downloads","no","mono","no","18","no","white","no","Student","yes","768","C:/Users/ilinc/OneDrive/Desktop/subject-0.csv","real","Melodramatic Milgram","4.0.5","genuine","left","space","NA","space","space","NA","left","7140.726699959487","1490.9220999106765","NA","27069.294600281864","2325.011699926108","NA","7140.726699959487","NA","NA","2","real_50","1024","2","48000","-16","experiment","0","even","41488.50640002638","NA","13112.559200264513","46074.724399950355","NA","39656.39130026102","10742.842300329357","157847.06669999287","NA","NA","158355.15350010246","48319.733399897814","10782.69200026989","NA","NA","NA","NA","NA","NA","NA","NA","NA","43363.63960010931","NA","158355.4497999139","75389.60860017687","157841.31930023432","NA","48263.84619995952","NA","43315.783800091594","165496.633999981","NA","41485.33200006932","NA","NA","New experiment","13","74672.51599952579","20","1024"
"66","NA","66","3784","3784","#3d3846","psycho","NA","1","undefined","undefined","1","left","0","0","0","0","0","0","0","20","NA","0","20","0","0","NA","NA","NA","0","NA","NA","NA","NA","NA","0","NA","20","0","20","0","0","0","0","20","0","0","0","NA","Thu Oct 26 17:05:30 2023","20","The main experiment item","yes","CogPsy_Assignment_With_Instruction.osexp","C:\Users\ilinc\Downloads","no","mono","no","18","no","white","no","Student","yes","768","C:/Users/ilinc/OneDrive/Desktop/subject-0.csv","fake","Melodramatic Milgram","4.0.5","NoNumOnThread_BlurryWatermark","left","space","NA","space","space","NA","left","4804.432900156826","1490.9220999106765","NA","27069.294600281864","2325.011699926108","NA","4804.432900156826","NA","NA","2","fake_20","1024","2","48000","-16","experiment","0","even","41488.50640002638","NA","13112.559200264513","46074.724399950355","NA","39656.39130026102","10742.842300329357","165800.23990012705","NA","NA","166307.81010026112","48319.733399897814","10782.69200026989","NA","NA","NA","NA","NA","NA","NA","NA","NA","43363.63960010931","NA","166308.11080010608","75389.60860017687","165794.96080009267","NA","48263.84619995952","NA","43315.783800091594","171113.09950007126","NA","41485.33200006932","NA","NA","New experiment","14","79476.94889968261","21","1024"
"68","NA","68","3717","3717","#3d3846","psycho","NA","1","undefined","undefined","1","left","0","0","0","0","0","0","0","21","NA","0","21","0","0","NA","NA","NA","0","NA","NA","NA","NA","NA","0","NA","21","0","21","0","0","0","0","21","0","0","0","NA","Thu Oct 26 17:05:30 2023","20","The main experiment item","yes","CogPsy_Assignment_With_Instruction.osexp","C:\Users\ilinc\Downloads","no","mono","no","18","no","white","no","Student","yes","768","C:/Users/ilinc/OneDrive/Desktop/subject-0.csv","fake","Melodramatic Milgram","4.0.5","silver_strip","left","space","NA","space","space","NA","left","2307.5859998352826","1490.9220999106765","NA","27069.294600281864","2325.011699926108","NA","2307.5859998352826","NA","NA","2","fake_2_20","1024","2","48000","-16","experiment","0","even","41488.50640002638","NA","13112.559200264513","46074.724399950355","NA","39656.39130026102","10742.842300329357","171324.5586999692","NA","NA","171830.98050020635","48319.733399897814","10782.69200026989","NA","NA","NA","NA","NA","NA","NA","NA","NA","43363.63960010931","NA","171831.2383000739","75389.60860017687","171318.56240006164","NA","48263.84619995952","NA","43315.783800091594","174139.33739997447","NA","41485.33200006932","NA","NA","New experiment","15","81784.5348995179","22","1024"
"69","NA","69","3636","3636","#3d3846","psycho","NA","1","undefined","undefined","1","left","0","0","0","0","0","0","0","22","NA","0","22","0","0","NA","NA","NA","0","NA","NA","NA","NA","NA","0","NA","22","0","22","0","0","0","0","22","0","0","0","NA","Thu Oct 26 17:05:30 2023","50","The main experiment item","yes","CogPsy_Assignment_With_Instruction.osexp","C:\Users\ilinc\Downloads","no","mono","no","18","no","white","no","Student","yes","768","C:/Users/ilinc/OneDrive/Desktop/subject-0.csv","fake","Melodramatic Milgram","4.0.5","NoNumOnThread_BlurryWatermark","left","space","NA","space","space","NA","left","1855.4711998440325","1490.9220999106765","NA","27069.294600281864","2325.011699926108","NA","1855.4711998440325","NA","NA","2","fake_2_50","1024","2","48000","-16","experiment","0","even","41488.50640002638","NA","13112.559200264513","46074.724399950355","NA","39656.39130026102","10742.842300329357","174347.01490029693","NA","NA","174853.52180013433","48319.733399897814","10782.69200026989","NA","NA","NA","NA","NA","NA","NA","NA","NA","43363.63960010931","NA","174853.7912000902","75389.60860017687","174341.71129995957","NA","48263.84619995952","NA","43315.783800091594","176709.75820021704","NA","41485.33200006932","NA","NA","New experiment","16","83640.00609936193","23","1024"
"66","NA","66","3560","3560","#3d3846","psycho","NA","0","undefined","undefined","0","left","0","0","0","0","0","0","0","23","NA","0","23","0","0","NA","NA","NA","0","NA","NA","NA","NA","NA","0","NA","23","0","23","0","0","0","0","23","0","0","0","NA","Thu Oct 26 17:05:30 2023","50","The main experiment item","yes","CogPsy_Assignment_With_Instruction.osexp","C:\Users\ilinc\Downloads","no","mono","no","18","no","white","no","Student","yes","768","C:/Users/ilinc/OneDrive/Desktop/subject-0.csv","fake","Melodramatic Milgram","4.0.5","PurpleDenomination","right","space","NA","space","space","NA","right","1820.324200205505","1490.9220999106765","NA","27069.294600281864","2325.011699926108","NA","1820.324200205505","NA","NA","2","fake_2_50","1024","2","48000","-16","experiment","0","even","41488.50640002638","NA","13112.559200264513","46074.724399950355","NA","39656.39130026102","10742.842300329357","176971.08000004664","NA","NA","177478.2485999167","48319.733399897814","10782.69200026989","NA","NA","NA","NA","NA","NA","NA","NA","NA","43363.63960010931","NA","177478.54749998078","75389.60860017687","176965.80850007012","NA","48263.84619995952","NA","43315.783800091594","179299.3381000124","NA","41485.33200006932","NA","NA","New experiment","16","85460.33029956743","24","1024"
"68","NA","68","3516","3516","#3d3846","psycho","NA","1","undefined","undefined","1","right","0","0","0","0","0","0","0","24","NA","0","24","0","0","NA","NA","NA","0","NA","NA","NA","NA","NA","0","NA","24","0","24","0","0","0","0","24","0","0","0","NA","Thu Oct 26 17:05:30 2023","20","The main experiment item","yes","CogPsy_Assignment_With_Instruction.osexp","C:\Users\ilinc\Downloads","no","mono","no","18","no","white","no","Student","yes","768","C:/Users/ilinc/OneDrive/Desktop/subject-0.csv","real","Melodramatic Milgram","4.0.5","genuine","right","space","NA","space","space","NA","right","2453.73099995777","1490.9220999106765","NA","27069.294600281864","2325.011699926108","NA","2453.73099995777","NA","NA","2","real_20","1024","2","48000","-16","experiment","0","even","41488.50640002638","NA","13112.559200264513","46074.724399950355","NA","39656.39130026102","10742.842300329357","179574.6217998676","NA","NA","180081.14079991356","48319.733399897814","10782.69200026989","NA","NA","NA","NA","NA","NA","NA","NA","NA","43363.63960010931","NA","180081.41899993643","75389.60860017687","179569.0075000748","NA","48263.84619995952","NA","43315.783800091594","182535.74090031907","NA","41485.33200006932","NA","NA","New experiment","17","87914.0612995252","25","1024"
"69","NA","69","3588","3588","#3d3846","psycho","NA","1","undefined","undefined","1","left","0","0","0","0","0","0","0","25","NA","0","25","0","0","NA","NA","NA","0","NA","NA","NA","NA","NA","0","NA","25","0","25","0","0","0","0","25","0","0","0","NA","Thu Oct 26 17:05:30 2023","50","The main experiment item","yes","CogPsy_Assignment_With_Instruction.osexp","C:\Users\ilinc\Downloads","no","mono","no","18","no","white","no","Student","yes","768","C:/Users/ilinc/OneDrive/Desktop/subject-0.csv","fake","Melodramatic Milgram","4.0.5","GreyDenomination","left","space","NA","space","space","NA","left","5379.377700388432","1490.9220999106765","NA","27069.294600281864","2325.011699926108","NA","5379.377700388432","NA","NA","2","fake_2_50","1024","2","48000","-16","experiment","0","even","41488.50640002638","NA","13112.559200264513","46074.724399950355","NA","39656.39130026102","10742.842300329357","182817.80510023236","NA","NA","183324.3428999558","48319.733399897814","10782.69200026989","NA","NA","NA","NA","NA","NA","NA","NA","NA","43363.63960010931","NA","183324.60039993748","75389.60860017687","182812.8617000766","NA","48263.84619995952","NA","43315.783800091594","188704.6210002154","NA","41485.33200006932","NA","NA","New experiment","18","93293.43899991363","26","1024"
"70","NA","70","3542","3542","#3d3846","psycho","NA","1","undefined","undefined","1","right","0","0","0","0","0","0","0","26","NA","0","26","0","0","NA","NA","NA","0","NA","NA","NA","NA","NA","0","NA","26","0","26","0","0","0","0","26","0","0","0","NA","Thu Oct 26 17:05:30 2023","50","The main experiment item","yes","CogPsy_Assignment_With_Instruction.osexp","C:\Users\ilinc\Downloads","no","mono","no","18","no","white","no","Student","yes","768","C:/Users/ilinc/OneDrive/Desktop/subject-0.csv","real","Melodramatic Milgram","4.0.5","photo_2","right","space","NA","space","space","NA","right","2348.4819000586867","1490.9220999106765","NA","27069.294600281864","2325.011699926108","NA","2348.4819000586867","NA","NA","2","real_50","1024","2","48000","-16","experiment","0","even","41488.50640002638","NA","13112.559200264513","46074.724399950355","NA","39656.39130026102","10742.842300329357","188998.3220002614","NA","NA","189505.1327003166","48319.733399897814","10782.69200026989","NA","NA","NA","NA","NA","NA","NA","NA","NA","43363.63960010931","NA","189505.43780019507","75389.60860017687","188993.00049990416","NA","48263.84619995952","NA","43315.783800091594","191854.40579988062","NA","41485.33200006932","NA","NA","New experiment","19","95641.92089997232","27","1024"
"71","NA","71","3717","3717","#3d3846","psycho","NA","1","undefined","undefined","1","right","0","0","0","0","0","0","0","27","NA","0","27","0","0","NA","NA","NA","0","NA","NA","NA","NA","NA","0","NA","27","0","27","0","0","0","0","27","0","0","0","NA","Thu Oct 26 17:05:30 2023","20","The main experiment item","yes","CogPsy_Assignment_With_Instruction.osexp","C:\Users\ilinc\Downloads","no","mono","no","18","no","white","no","Student","yes","768","C:/Users/ilinc/OneDrive/Desktop/subject-0.csv","real","Melodramatic Milgram","4.0.5","photo","right","space","NA","space","space","NA","right","8452.920900192112","1490.9220999106765","NA","27069.294600281864","2325.011699926108","NA","8452.920900192112","NA","NA","2","real_20","1024","2","48000","-16","experiment","0","even","41488.50640002638","NA","13112.559200264513","46074.724399950355","NA","39656.39130026102","10742.842300329357","192160.86920024827","NA","NA","192667.7494002506","48319.733399897814","10782.69200026989","NA","NA","NA","NA","NA","NA","NA","NA","NA","43363.63960010931","NA","192668.09329995885","75389.60860017687","192155.63850011677","NA","48263.84619995952","NA","43315.783800091594","201121.72210030258","NA","41485.33200006932","NA","NA","New experiment","20","104094.84180016443","28","1024"
"72","NA","72","3803","3803","#3d3846","psycho","NA","1","undefined","undefined","1","right","0","0","0","0","0","0","0","28","NA","0","28","0","0","NA","NA","NA","0","NA","NA","NA","NA","NA","0","NA","28","0","28","0","0","0","0","28","0","0","0","NA","Thu Oct 26 17:05:30 2023","20","The main experiment item","yes","CogPsy_Assignment_With_Instruction.osexp","C:\Users\ilinc\Downloads","no","mono","no","18","no","white","no","Student","yes","768","C:/Users/ilinc/OneDrive/Desktop/subject-0.csv","real","Melodramatic Milgram","4.0.5","photo","right","space","NA","space","space","NA","right","6200.528299901634","1490.9220999106765","NA","27069.294600281864","2325.011699926108","NA","6200.528299901634","NA","NA","2","real_20","1024","2","48000","-16","experiment","0","even","41488.50640002638","NA","13112.559200264513","46074.724399950355","NA","39656.39130026102","10742.842300329357","201448.84720025584","NA","NA","201955.70639986545","48319.733399897814","10782.69200026989","NA","NA","NA","NA","NA","NA","NA","NA","NA","43363.63960010931","NA","201956.05030003935","75389.60860017687","201443.62589996308","NA","48263.84619995952","NA","43315.783800091594","208157.1871000342","NA","41485.33200006932","NA","NA","New experiment","21","110295.37010006607","29","1024"
"73","NA","73","3828","3828","#3d3846","psycho","NA","1","undefined","undefined","1","left","0","0","0","0","0","0","0","29","NA","0","29","0","0","NA","NA","NA","0","NA","NA","NA","NA","NA","0","NA","29","0","29","0","0","0","0","29","0","0","0","NA","Thu Oct 26 17:05:30 2023","20","The main experiment item","yes","CogPsy_Assignment_With_Instruction.osexp","C:\Users\ilinc\Downloads","no","mono","no","18","no","white","no","Student","yes","768","C:/Users/ilinc/OneDrive/Desktop/subject-0.csv","fake","Melodramatic Milgram","4.0.5","BadInk","left","space","NA","space","space","NA","left","4557.505900040269","1490.9220999106765","NA","27069.294600281864","2325.011699926108","NA","4557.505900040269","NA","NA","2","fake_20","1024","2","48000","-16","experiment","0","even","41488.50640002638","NA","13112.559200264513","46074.724399950355","NA","39656.39130026102","10742.842300329357","208373.821800109","NA","NA","208879.8489999026","48319.733399897814","10782.69200026989","NA","NA","NA","NA","NA","NA","NA","NA","NA","43363.63960010931","NA","208880.12900017202","75389.60860017687","208368.56159986928","NA","48263.84619995952","NA","43315.783800091594","213438.11869993806","NA","41485.33200006932","NA","NA","New experiment","22","114852.87600010633","30","1024"
"74","NA","74","3798","3798","#3d3846","psycho","NA","1","undefined","undefined","1","left","0","0","0","0","0","0","0","30","NA","0","30","0","0","NA","NA","NA","0","NA","NA","NA","NA","NA","0","NA","30","0","30","0","0","0","0","30","0","0","0","NA","Thu Oct 26 17:05:30 2023","50","The main experiment item","yes","CogPsy_Assignment_With_Instruction.osexp","C:\Users\ilinc\Downloads","no","mono","no","18","no","white","no","Student","yes","768","C:/Users/ilinc/OneDrive/Desktop/subject-0.csv","fake","Melodramatic Milgram","4.0.5","silver_strip","left","space","NA","space","space","NA","left","2896.9096997752786","1490.9220999106765","NA","27069.294600281864","2325.011699926108","NA","2896.9096997752786","NA","NA","2","fake_2_50","1024","2","48000","-16","experiment","0","even","41488.50640002638","NA","13112.559200264513","46074.724399950355","NA","39656.39130026102","10742.842300329357","213679.21240022406","NA","NA","214185.8977000229","48319.733399897814","10782.69200026989","NA","NA","NA","NA","NA","NA","NA","NA","NA","43363.63960010931","NA","214186.18880026042","75389.60860017687","213673.98279998451","NA","48263.84619995952","NA","43315.783800091594","217083.75000022352","NA","41485.33200006932","NA","NA","New experiment","23","117749.78569988161","31","1024"
"71","NA","71","3826","3826","#3d3846","psycho","NA","0","undefined","undefined","0","left","0","0","0","0","0","0","0","31","NA","0","31","0","0","NA","NA","NA","0","NA","NA","NA","NA","NA","0","NA","31","0","31","0","0","0","0","31","0","0","0","NA","Thu Oct 26 17:05:30 2023","20","The main experiment item","yes","CogPsy_Assignment_With_Instruction.osexp","C:\Users\ilinc\Downloads","no","mono","no","18","no","white","no","Student","yes","768","C:/Users/ilinc/OneDrive/Desktop/subject-0.csv","fake","Melodramatic Milgram","4.0.5","BadInk2","right","space","NA","space","space","NA","right","4699.613099917769","1490.9220999106765","NA","27069.294600281864","2325.011699926108","NA","4699.613099917769","NA","NA","2","fake_20","1024","2","48000","-16","experiment","0","even","41488.50640002638","NA","13112.559200264513","46074.724399950355","NA","39656.39130026102","10742.842300329357","217266.3723002188","NA","NA","217770.2878001146","48319.733399897814","10782.69200026989","NA","NA","NA","NA","NA","NA","NA","NA","NA","43363.63960010931","NA","217770.50710003823","75389.60860017687","217261.4966998808","NA","48263.84619995952","NA","43315.783800091594","222470.76970012859","NA","41485.33200006932","NA","NA","New experiment","23","122449.39879979938","32","1024"
"72","NA","72","3823","3823","#3d3846","psycho","NA","1","undefined","undefined","1","right","0","0","0","0","0","0","0","32","NA","0","32","0","0","NA","NA","NA","0","NA","NA","NA","NA","NA","0","NA","32","0","32","0","0","0","0","32","0","0","0","NA","Thu Oct 26 17:05:30 2023","50","The main experiment item","yes","CogPsy_Assignment_With_Instruction.osexp","C:\Users\ilinc\Downloads","no","mono","no","18","no","white","no","Student","yes","768","C:/Users/ilinc/OneDrive/Desktop/subject-0.csv","real","Melodramatic Milgram","4.0.5","photo","right","space","NA","space","space","NA","right","3712.7574998885393","1490.9220999106765","NA","27069.294600281864","2325.011699926108","NA","3712.7574998885393","NA","NA","2","real_50","1024","2","48000","-16","experiment","0","even","41488.50640002638","NA","13112.559200264513","46074.724399950355","NA","39656.39130026102","10742.842300329357","222756.66389986873","NA","NA","223263.44300014898","48319.733399897814","10782.69200026989","NA","NA","NA","NA","NA","NA","NA","NA","NA","43363.63960010931","NA","223263.71210021898","75389.60860017687","222751.37660000473","NA","48263.84619995952","NA","43315.783800091594","226977.1258002147","NA","41485.33200006932","NA","NA","New experiment","24","126162.15629968792","33","1024"
"73","NA","73","3743","3743","#3d3846","psycho","NA","1","undefined","undefined","1","left","0","0","0","0","0","0","0","33","NA","0","33","0","0","NA","NA","NA","0","NA","NA","NA","NA","NA","0","NA","33","0","33","0","0","0","0","33","0","0","0","NA","Thu Oct 26 17:05:30 2023","50","The main experiment item","yes","CogPsy_Assignment_With_Instruction.osexp","C:\Users\ilinc\Downloads","no","mono","no","18","no","white","no","Student","yes","768","C:/Users/ilinc/OneDrive/Desktop/subject-0.csv","fake","Melodramatic Milgram","4.0.5","PurpleDenomination3","left","space","NA","space","space","NA","left","1130.5344002321362","1490.9220999106765","NA","27069.294600281864","2325.011699926108","NA","1130.5344002321362","NA","NA","2","fake_2_50","1024","2","48000","-16","experiment","0","even","41488.50640002638","NA","13112.559200264513","46074.724399950355","NA","39656.39130026102","10742.842300329357","227264.09990014508","NA","NA","227771.36010024697","48319.733399897814","10782.69200026989","NA","NA","NA","NA","NA","NA","NA","NA","NA","43363.63960010931","NA","227771.6431999579","75389.60860017687","227258.8001000695","NA","48263.84619995952","NA","43315.783800091594","228902.71410020068","NA","41485.33200006932","NA","NA","New experiment","25","127292.69069992006","34","1024"
"74","NA","74","3851","3851","#3d3846","psycho","NA","1","undefined","undefined","1","left","0","0","0","0","0","0","0","34","NA","0","34","0","0","NA","NA","NA","0","NA","NA","NA","NA","NA","0","NA","34","0","34","0","0","0","0","34","0","0","0","NA","Thu Oct 26 17:05:30 2023","20","The main experiment item","yes","CogPsy_Assignment_With_Instruction.osexp","C:\Users\ilinc\Downloads","no","mono","no","18","no","white","no","Student","yes","768","C:/Users/ilinc/OneDrive/Desktop/subject-0.csv","fake","Melodramatic Milgram","4.0.5","BadInk","left","space","NA","space","space","NA","left","7502.1737003698945","1490.9220999106765","NA","27069.294600281864","2325.011699926108","NA","7502.1737003698945","NA","NA","2","fake_20","1024","2","48000","-16","experiment","0","even","41488.50640002638","NA","13112.559200264513","46074.724399950355","NA","39656.39130026102","10742.842300329357","229182.65470024198","NA","NA","229689.638200216","48319.733399897814","10782.69200026989","NA","NA","NA","NA","NA","NA","NA","NA","NA","43363.63960010931","NA","229689.99039987102","75389.60860017687","229177.55330028012","NA","48263.84619995952","NA","43315.783800091594","237192.6833000034","NA","41485.33200006932","NA","NA","New experiment","26","134794.86440028995","35","1024"
"75","NA","75","3822","3822","#3d3846","psycho","NA","1","undefined","undefined","1","left","0","0","0","0","0","0","0","35","NA","0","35","0","0","NA","NA","NA","0","NA","NA","NA","NA","NA","0","NA","35","0","35","0","0","0","0","35","0","0","0","NA","Thu Oct 26 17:05:30 2023","20","The main experiment item","yes","CogPsy_Assignment_With_Instruction.osexp","C:\Users\ilinc\Downloads","no","mono","no","18","no","white","no","Student","yes","768","C:/Users/ilinc/OneDrive/Desktop/subject-0.csv","fake","Melodramatic Milgram","4.0.5","silver_strip","left","space","NA","space","space","NA","left","2798.092699609697","1490.9220999106765","NA","27069.294600281864","2325.011699926108","NA","2798.092699609697","NA","NA","2","fake_2_20","1024","2","48000","-16","experiment","0","even","41488.50640002638","NA","13112.559200264513","46074.724399950355","NA","39656.39130026102","10742.842300329357","237472.04670030624","NA","NA","237978.6829003133","48319.733399897814","10782.69200026989","NA","NA","NA","NA","NA","NA","NA","NA","NA","43363.63960010931","NA","237978.96700026467","75389.60860017687","237466.29159990698","NA","48263.84619995952","NA","43315.783800091594","240777.77819987386","NA","41485.33200006932","NA","NA","New experiment","27","137592.95709989965","36","1024"
"75","NA","75","3751","3751","#3d3846","psycho","NA","1","undefined","undefined","1","right","0","0","0","0","0","0","0","36","NA","0","36","0","0","NA","NA","NA","0","NA","NA","NA","NA","NA","0","NA","36","0","36","0","0","0","0","36","0","0","0","NA","Thu Oct 26 17:05:30 2023","50","The main experiment item","yes","CogPsy_Assignment_With_Instruction.osexp","C:\Users\ilinc\Downloads","no","mono","no","18","no","white","no","Student","yes","768","C:/Users/ilinc/OneDrive/Desktop/subject-0.csv","real","Melodramatic Milgram","4.0.5","photo_2","right","space","NA","space","space","NA","right","1228.6747000180185","1490.9220999106765","NA","27069.294600281864","2325.011699926108","NA","1228.6747000180185","NA","NA","2","real_50","1024","2","48000","-16","experiment","0","even","41488.50640002638","NA","13112.559200264513","46074.724399950355","NA","39656.39130026102","10742.842300329357","241055.60349998996","NA","NA","241562.70400015637","48319.733399897814","10782.69200026989","NA","NA","NA","NA","NA","NA","NA","NA","NA","43363.63960010931","NA","241562.98479996622","75389.60860017687","241050.1653002575","NA","48263.84619995952","NA","43315.783800091594","242792.28729987517","NA","41485.33200006932","NA","NA","New experiment","28","138821.63179991767","37","1024"
"73","NA","73","3781","3781","#3d3846","psycho","NA","0","undefined","undefined","0","right","0","0","0","0","0","0","0","37","NA","0","37","0","0","NA","NA","NA","0","NA","NA","NA","NA","NA","0","NA","37","0","37","0","0","0","0","37","0","0","0","NA","Thu Oct 26 17:05:30 2023","50","The main experiment item","yes","CogPsy_Assignment_With_Instruction.osexp","C:\Users\ilinc\Downloads","no","mono","no","18","no","white","no","Student","yes","768","C:/Users/ilinc/OneDrive/Desktop/subject-0.csv","real","Melodramatic Milgram","4.0.5","photo_2","left","space","NA","space","space","NA","left","4887.507100123912","1490.9220999106765","NA","27069.294600281864","2325.011699926108","NA","4887.507100123912","NA","NA","2","real_50","1024","2","48000","-16","experiment","0","even","41488.50640002638","NA","13112.559200264513","46074.724399950355","NA","39656.39130026102","10742.842300329357","243050.33269990236","NA","NA","243557.70249990746","48319.733399897814","10782.69200026989","NA","NA","NA","NA","NA","NA","NA","NA","NA","43363.63960010931","NA","243558.00609989092","75389.60860017687","243045.0355000794","NA","48263.84619995952","NA","43315.783800091594","248446.21130032465","NA","41485.33200006932","NA","NA","New experiment","28","143709.13890004158","38","1024"
"74","NA","74","3823","3823","#3d3846","psycho","NA","1","undefined","undefined","1","right","0","0","0","0","0","0","0","38","NA","0","38","0","0","NA","NA","NA","0","NA","NA","NA","NA","NA","0","NA","38","0","38","0","0","0","0","38","0","0","0","NA","Thu Oct 26 17:05:30 2023","20","The main experiment item","yes","CogPsy_Assignment_With_Instruction.osexp","C:\Users\ilinc\Downloads","no","mono","no","18","no","white","no","Student","yes","768","C:/Users/ilinc/OneDrive/Desktop/subject-0.csv","real","Melodramatic Milgram","4.0.5","genuine","right","space","NA","space","space","NA","right","5392.9494000039995","1490.9220999106765","NA","27069.294600281864","2325.011699926108","NA","5392.9494000039995","NA","NA","2","real_20","1024","2","48000","-16","experiment","0","even","41488.50640002638","NA","13112.559200264513","46074.724399950355","NA","39656.39130026102","10742.842300329357","248693.75499989837","NA","NA","249200.72619989514","48319.733399897814","10782.69200026989","NA","NA","NA","NA","NA","NA","NA","NA","NA","43363.63960010931","NA","249200.98030008376","75389.60860017687","248688.32010030746","NA","48263.84619995952","NA","43315.783800091594","254594.4750001654","NA","41485.33200006932","NA","NA","New experiment","29","149102.08830004558","39","1024"
"72","NA","72","3760","3760","#3d3846","psycho","NA","0","undefined","undefined","0","right","0","0","0","0","0","0","0","39","NA","0","39","0","0","NA","NA","NA","0","NA","NA","NA","NA","NA","0","NA","39","0","39","0","0","0","0","39","0","0","0","NA","Thu Oct 26 17:05:30 2023","50","The main experiment item","yes","CogPsy_Assignment_With_Instruction.osexp","C:\Users\ilinc\Downloads","no","mono","no","18","no","white","no","Student","yes","768","C:/Users/ilinc/OneDrive/Desktop/subject-0.csv","real","Melodramatic Milgram","4.0.5","genuine","left","space","NA","space","space","NA","left","1306.9076999090612","1490.9220999106765","NA","27069.294600281864","2325.011699926108","NA","1306.9076999090612","NA","NA","2","real_20","1024","2","48000","-16","experiment","0","even","41488.50640002638","NA","13112.559200264513","46074.724399950355","NA","39656.39130026102","10742.842300329357","254764.91119991988","NA","NA","255271.1010002531","48319.733399897814","10782.69200026989","NA","NA","NA","NA","NA","NA","NA","NA","NA","43363.63960010931","NA","255271.3636001572","75389.60860017687","254759.22959996387","NA","48263.84619995952","NA","43315.783800091594","256578.80580006167","NA","41485.33200006932","NA","NA","New experiment","29","150408.99599995464","40","1024"
"73","NA","73","3765","3765","#3d3846","psycho","NA","1","undefined","undefined","1","right","0","0","0","0","0","0","0","40","NA","0","40","0","0","NA","NA","NA","0","NA","NA","NA","NA","NA","0","NA","40","0","40","0","0","0","0","40","0","0","0","NA","Thu Oct 26 17:05:30 2023","20","The main experiment item","yes","CogPsy_Assignment_With_Instruction.osexp","C:\Users\ilinc\Downloads","no","mono","no","18","no","white","no","Student","yes","768","C:/Users/ilinc/OneDrive/Desktop/subject-0.csv","real","Melodramatic Milgram","4.0.5","photo","right","space","NA","space","space","NA","right","3991.8275997042656","1490.9220999106765","NA","27069.294600281864","2325.011699926108","NA","3991.8275997042656","NA","NA","2","real_20","1024","2","48000","-16","experiment","0","even","41488.50640002638","NA","13112.559200264513","46074.724399950355","NA","39656.39130026102","10742.842300329357","256891.59600017592","NA","NA","257398.80560012534","48319.733399897814","10782.69200026989","NA","NA","NA","NA","NA","NA","NA","NA","NA","43363.63960010931","NA","257399.11850029603","75389.60860017687","256886.32280007005","NA","48263.84619995952","NA","43315.783800091594","261391.74460014328","NA","41485.33200006932","NA","NA","New experiment","30","154400.8235996589","41","1024"
"71","NA","71","3804","3804","#3d3846","psycho","NA","0","undefined","undefined","0","right","0","0","0","0","0","0","0","41","NA","0","41","0","0","NA","NA","NA","0","NA","NA","NA","NA","NA","0","NA","41","0","41","0","0","0","0","41","0","0","0","NA","Thu Oct 26 17:05:30 2023","50","The main experiment item","yes","CogPsy_Assignment_With_Instruction.osexp","C:\Users\ilinc\Downloads","no","mono","no","18","no","white","no","Student","yes","768","C:/Users/ilinc/OneDrive/Desktop/subject-0.csv","real","Melodramatic Milgram","4.0.5","genuine","left","space","NA","space","space","NA","left","5406.120600178838","1490.9220999106765","NA","27069.294600281864","2325.011699926108","NA","5406.120600178838","NA","NA","2","real_20","1024","2","48000","-16","experiment","0","even","41488.50640002638","NA","13112.559200264513","46074.724399950355","NA","39656.39130026102","10742.842300329357","261625.7338002324","NA","NA","262133.14709998667","48319.733399897814","10782.69200026989","NA","NA","NA","NA","NA","NA","NA","NA","NA","43363.63960010931","NA","262133.4375999868","75389.60860017687","261620.38240022957","NA","48263.84619995952","NA","43315.783800091594","267540.1495001279","NA","41485.33200006932","NA","NA","New experiment","30","159806.94419983774","42","1024"
"72","NA","72","3746","3746","#3d3846","psycho","NA","1","undefined","undefined","1","left","0","0","0","0","0","0","0","42","NA","0","42","0","0","NA","NA","NA","0","NA","NA","NA","NA","NA","0","NA","42","0","42","0","0","0","0","42","0","0","0","NA","Thu Oct 26 17:05:30 2023","50","The main experiment item","yes","CogPsy_Assignment_With_Instruction.osexp","C:\Users\ilinc\Downloads","no","mono","no","18","no","white","no","Student","yes","768","C:/Users/ilinc/OneDrive/Desktop/subject-0.csv","fake","Melodramatic Milgram","4.0.5","NoNumOnThread_BlurryWatermark","left","space","NA","space","space","NA","left","1281.0450997203588","1490.9220999106765","NA","27069.294600281864","2325.011699926108","NA","1281.0450997203588","NA","NA","2","fake_2_50","1024","2","48000","-16","experiment","0","even","41488.50640002638","NA","13112.559200264513","46074.724399950355","NA","39656.39130026102","10742.842300329357","267843.9028998837","NA","NA","268350.15990026295","48319.733399897814","10782.69200026989","NA","NA","NA","NA","NA","NA","NA","NA","NA","43363.63960010931","NA","268350.4162002355","75389.60860017687","267837.49040029943","NA","48263.84619995952","NA","43315.783800091594","269632.00440024957","NA","41485.33200006932","NA","NA","New experiment","31","161087.9892995581","43","1024"
"72","NA","72","3776","3776","#3d3846","psycho","NA","1","undefined","undefined","1","left","0","0","0","0","0","0","0","43","NA","0","43","0","0","NA","NA","NA","0","NA","NA","NA","NA","NA","0","NA","43","0","43","0","0","0","0","43","0","0","0","NA","Thu Oct 26 17:05:30 2023","20","The main experiment item","yes","CogPsy_Assignment_With_Instruction.osexp","C:\Users\ilinc\Downloads","no","mono","no","18","no","white","no","Student","yes","768","C:/Users/ilinc/OneDrive/Desktop/subject-0.csv","fake","Melodramatic Milgram","4.0.5","DullHologram2","left","space","NA","space","space","NA","left","5066.730999853462","1490.9220999106765","NA","27069.294600281864","2325.011699926108","NA","5066.730999853462","NA","NA","2","fake_20","1024","2","48000","-16","experiment","0","even","41488.50640002638","NA","13112.559200264513","46074.724399950355","NA","39656.39130026102","10742.842300329357","269927.59629990906","NA","NA","270434.9404000677","48319.733399897814","10782.69200026989","NA","NA","NA","NA","NA","NA","NA","NA","NA","43363.63960010931","NA","270435.24260027334","75389.60860017687","269922.1560000442","NA","48263.84619995952","NA","43315.783800091594","275502.51080002636","NA","41485.33200006932","NA","NA","New experiment","32","166154.72029941157","44","1024"
"73","NA","73","3710","3710","#3d3846","psycho","NA","1","undefined","undefined","1","right","0","0","0","0","0","0","0","44","NA","0","44","0","0","NA","NA","NA","0","NA","NA","NA","NA","NA","0","NA","44","0","44","0","0","0","0","44","0","0","0","NA","Thu Oct 26 17:05:30 2023","50","The main experiment item","yes","CogPsy_Assignment_With_Instruction.osexp","C:\Users\ilinc\Downloads","no","mono","no","18","no","white","no","Student","yes","768","C:/Users/ilinc/OneDrive/Desktop/subject-0.csv","real","Melodramatic Milgram","4.0.5","photo","right","space","NA","space","space","NA","right","809.3396998010576","1490.9220999106765","NA","27069.294600281864","2325.011699926108","NA","809.3396998010576","NA","NA","2","real_50","1024","2","48000","-16","experiment","0","even","41488.50640002638","NA","13112.559200264513","46074.724399950355","NA","39656.39130026102","10742.842300329357","275774.4406000711","NA","NA","276280.45020019636","48319.733399897814","10782.69200026989","NA","NA","NA","NA","NA","NA","NA","NA","NA","43363.63960010931","NA","276280.71200009435","75389.60860017687","275769.46520013735","NA","48263.84619995952","NA","43315.783800091594","277090.61240032315","NA","41485.33200006932","NA","NA","New experiment","33","166964.05999921262","45","1024"
"73","NA","73","3652","3652","#3d3846","psycho","NA","1","undefined","undefined","1","left","0","0","0","0","0","0","0","45","NA","0","45","0","0","NA","NA","NA","0","NA","NA","NA","NA","NA","0","NA","45","0","45","0","0","0","0","45","0","0","0","NA","Thu Oct 26 17:05:30 2023","50","The main experiment item","yes","CogPsy_Assignment_With_Instruction.osexp","C:\Users\ilinc\Downloads","no","mono","no","18","no","white","no","Student","yes","768","C:/Users/ilinc/OneDrive/Desktop/subject-0.csv","fake","Melodramatic Milgram","4.0.5","GreyDenomination","left","space","NA","space","space","NA","left","1064.35630004853","1490.9220999106765","NA","27069.294600281864","2325.011699926108","NA","1064.35630004853","NA","NA","2","fake_2_50","1024","2","48000","-16","experiment","0","even","41488.50640002638","NA","13112.559200264513","46074.724399950355","NA","39656.39130026102","10742.842300329357","277303.8226002827","NA","NA","277810.81800023094","48319.733399897814","10782.69200026989","NA","NA","NA","NA","NA","NA","NA","NA","NA","43363.63960010931","NA","277811.1030999571","75389.60860017687","277298.94160013646","NA","48263.84619995952","NA","43315.783800091594","278876.1395001784","NA","41485.33200006932","NA","NA","New experiment","34","168028.41629926115","46","1024"
"74","NA","74","3710","3710","#3d3846","psycho","NA","1","undefined","undefined","1","left","0","0","0","0","0","0","0","46","NA","0","46","0","0","NA","NA","NA","0","NA","NA","NA","NA","NA","0","NA","46","0","46","0","0","0","0","46","0","0","0","NA","Thu Oct 26 17:05:30 2023","20","The main experiment item","yes","CogPsy_Assignment_With_Instruction.osexp","C:\Users\ilinc\Downloads","no","mono","no","18","no","white","no","Student","yes","768","C:/Users/ilinc/OneDrive/Desktop/subject-0.csv","fake","Melodramatic Milgram","4.0.5","DullHologram","left","space","NA","space","space","NA","left","6378.617699723691","1490.9220999106765","NA","27069.294600281864","2325.011699926108","NA","6378.617699723691","NA","NA","2","fake_20","1024","2","48000","-16","experiment","0","even","41488.50640002638","NA","13112.559200264513","46074.724399950355","NA","39656.39130026102","10742.842300329357","279133.9986003004","NA","NA","279641.62930008024","48319.733399897814","10782.69200026989","NA","NA","NA","NA","NA","NA","NA","NA","NA","43363.63960010931","NA","279641.94650016725","75389.60860017687","279128.51830013096","NA","48263.84619995952","NA","43315.783800091594","286021.29720011726","NA","41485.33200006932","NA","NA","New experiment","35","174407.03399898484","47","1024"
"75","NA","75","3682","3682","#3d3846","psycho","NA","1","undefined","undefined","1","right","0","0","0","0","0","0","0","47","NA","0","47","0","0","NA","NA","NA","0","NA","NA","NA","NA","NA","0","NA","47","0","47","0","0","0","0","47","0","0","0","NA","Thu Oct 26 17:05:30 2023","20","The main experiment item","yes","CogPsy_Assignment_With_Instruction.osexp","C:\Users\ilinc\Downloads","no","mono","no","18","no","white","no","Student","yes","768","C:/Users/ilinc/OneDrive/Desktop/subject-0.csv","real","Melodramatic Milgram","4.0.5","genuine","right","space","NA","space","space","NA","right","2355.038299690932","1490.9220999106765","NA","27069.294600281864","2325.011699926108","NA","2355.038299690932","NA","NA","2","real_20","1024","2","48000","-16","experiment","0","even","41488.50640002638","NA","13112.559200264513","46074.724399950355","NA","39656.39130026102","10742.842300329357","286272.1338002011","NA","NA","286778.9945001714","48319.733399897814","10782.69200026989","NA","NA","NA","NA","NA","NA","NA","NA","NA","43363.63960010931","NA","286779.24770023674","75389.60860017687","286266.7453000322","NA","48263.84619995952","NA","43315.783800091594","289134.99809987843","NA","41485.33200006932","NA","NA","New experiment","36","176762.07229867578","48","1024"
"73","NA","73","3770","3770","#3d3846","psycho","NA","0","undefined","undefined","0","left","0","0","0","0","0","0","0","48","NA","0","48","0","0","NA","NA","NA","0","NA","NA","NA","NA","NA","0","NA","48","0","48","0","0","0","0","48","0","0","0","NA","Thu Oct 26 17:05:30 2023","20","The main experiment item","yes","CogPsy_Assignment_With_Instruction.osexp","C:\Users\ilinc\Downloads","no","mono","no","18","no","white","no","Student","yes","768","C:/Users/ilinc/OneDrive/Desktop/subject-0.csv","fake","Melodramatic Milgram","4.0.5","PurpleDenomination","right","space","NA","space","space","NA","right","7983.267899602652","1490.9220999106765","NA","27069.294600281864","2325.011699926108","NA","7983.267899602652","NA","NA","2","fake_20","1024","2","48000","-16","experiment","0","even","41488.50640002638","NA","13112.559200264513","46074.724399950355","NA","39656.39130026102","10742.842300329357","289406.6257001832","NA","NA","289913.89370011166","48319.733399897814","10782.69200026989","NA","NA","NA","NA","NA","NA","NA","NA","NA","43363.63960010931","NA","289914.20860029757","75389.60860017687","289401.6013001092","NA","48263.84619995952","NA","43315.783800091594","297898.23839999735","NA","41485.33200006932","NA","NA","New experiment","36","184745.34019827843","49","1024"
"74","NA","74","3710","3710","#3d3846","psycho","NA","1","undefined","undefined","1","left","0","0","0","0","0","0","0","49","NA","0","49","0","0","NA","NA","NA","0","NA","NA","NA","NA","NA","0","NA","49","0","49","0","0","0","0","49","0","0","0","NA","Thu Oct 26 17:05:30 2023","50","The main experiment item","yes","CogPsy_Assignment_With_Instruction.osexp","C:\Users\ilinc\Downloads","no","mono","no","18","no","white","no","Student","yes","768","C:/Users/ilinc/OneDrive/Desktop/subject-0.csv","fake","Melodramatic Milgram","4.0.5","BadInk","left","space","NA","space","space","NA","left","769.2280998453498","1490.9220999106765","NA","27069.294600281864","2325.011699926108","NA","769.2280998453498","NA","NA","2","fake_2_50","1024","2","48000","-16","experiment","0","even","41488.50640002638","NA","13112.559200264513","46074.724399950355","NA","39656.39130026102","10742.842300329357","298119.1854001954","NA","NA","298626.22730014846","48319.733399897814","10782.69200026989","NA","NA","NA","NA","NA","NA","NA","NA","NA","43363.63960010931","NA","298626.5249000862","75389.60860017687","298114.169199951","NA","48263.84619995952","NA","43315.783800091594","299396.52559999377","NA","41485.33200006932","NA","NA","New experiment","37","185514.56829812378","50","1024"
"72","NA","72","3664","3664","#3d3846","psycho","NA","0","undefined","undefined","0","right","0","0","0","0","0","0","0","50","NA","0","50","0","0","NA","NA","NA","0","NA","NA","NA","NA","NA","0","NA","50","0","50","0","0","0","0","50","0","0","0","NA","Thu Oct 26 17:05:30 2023","50","The main experiment item","yes","CogPsy_Assignment_With_Instruction.osexp","C:\Users\ilinc\Downloads","no","mono","no","18","no","white","no","Student","yes","768","C:/Users/ilinc/OneDrive/Desktop/subject-0.csv","real","Melodramatic Milgram","4.0.5","genuine","left","space","NA","space","space","NA","left","1354.3006000109017","1490.9220999106765","NA","27069.294600281864","2325.011699926108","NA","1354.3006000109017","NA","NA","2","real_50","1024","2","48000","-16","experiment","0","even","41488.50640002638","NA","13112.559200264513","46074.724399950355","NA","39656.39130026102","10742.842300329357","299640.0653999299","NA","NA","300147.58650027215","48319.733399897814","10782.69200026989","NA","NA","NA","NA","NA","NA","NA","NA","NA","43363.63960010931","NA","300147.8883000091","75389.60860017687","299634.59870032966","NA","48263.84619995952","NA","43315.783800091594","301502.87429988384","NA","41485.33200006932","NA","NA","New experiment","37","186868.86889813468","51","1024"
"71","NA","71","3727","3727","#3d3846","psycho","NA","0","undefined","undefined","0","left","0","0","0","0","0","0","0","51","NA","0","51","0","0","NA","NA","NA","0","NA","NA","NA","NA","NA","0","NA","51","0","51","0","0","0","0","51","0","0","0","NA","Thu Oct 26 17:05:30 2023","50","The main experiment item","yes","CogPsy_Assignment_With_Instruction.osexp","C:\Users\ilinc\Downloads","no","mono","no","18","no","white","no","Student","yes","768","C:/Users/ilinc/OneDrive/Desktop/subject-0.csv","fake","Melodramatic Milgram","4.0.5","bottom_left","right","space","NA","space","space","NA","right","6953.988499939442","1490.9220999106765","NA","27069.294600281864","2325.011699926108","NA","6953.988499939442","NA","NA","2","fake_1_50","1024","2","48000","-16","experiment","0","even","41488.50640002638","NA","13112.559200264513","46074.724399950355","NA","39656.39130026102","10742.842300329357","301712.8318999894","NA","NA","302220.2929002233","48319.733399897814","10782.69200026989","NA","NA","NA","NA","NA","NA","NA","NA","NA","43363.63960010931","NA","302220.60520015657","75389.60860017687","301707.23510021344","NA","48263.84619995952","NA","43315.783800091594","309175.2863000147","NA","41485.33200006932","NA","NA","New experiment","37","193822.85739807412","52","1024"
"69","NA","69","3713","3713","#3d3846","psycho","NA","0","undefined","undefined","0","left","0","0","0","0","0","0","0","52","NA","0","52","0","0","NA","NA","NA","0","NA","NA","NA","NA","NA","0","NA","52","0","52","0","0","0","0","52","0","0","0","NA","Thu Oct 26 17:05:30 2023","50","The main experiment item","yes","CogPsy_Assignment_With_Instruction.osexp","C:\Users\ilinc\Downloads","no","mono","no","18","no","white","no","Student","yes","768","C:/Users/ilinc/OneDrive/Desktop/subject-0.csv","fake","Melodramatic Milgram","4.0.5","PurpleDenomination","right","space","NA","space","space","NA","right","2991.799700073898","1490.9220999106765","NA","27069.294600281864","2325.011699926108","NA","2991.799700073898","NA","NA","2","fake_2_50","1024","2","48000","-16","experiment","0","even","41488.50640002638","NA","13112.559200264513","46074.724399950355","NA","39656.39130026102","10742.842300329357","309408.91140000895","NA","NA","309915.3176001273","48319.733399897814","10782.69200026989","NA","NA","NA","NA","NA","NA","NA","NA","NA","43363.63960010931","NA","309915.5816999264","75389.60860017687","309403.88019988313","NA","48263.84619995952","NA","43315.783800091594","312908.16600015387","NA","41485.33200006932","NA","NA","New experiment","37","196814.65709814802","53","1024"
"70","NA","70","3728","3728","#3d3846","psycho","NA","1","undefined","undefined","1","left","0","0","0","0","0","0","0","53","NA","0","53","0","0","NA","NA","NA","0","NA","NA","NA","NA","NA","0","NA","53","0","53","0","0","0","0","53","0","0","0","NA","Thu Oct 26 17:05:30 2023","20","The main experiment item","yes","CogPsy_Assignment_With_Instruction.osexp","C:\Users\ilinc\Downloads","no","mono","no","18","no","white","no","Student","yes","768","C:/Users/ilinc/OneDrive/Desktop/subject-0.csv","fake","Melodramatic Milgram","4.0.5","DullHologram","left","space","NA","space","space","NA","left","4510.254299733788","1490.9220999106765","NA","27069.294600281864","2325.011699926108","NA","4510.254299733788","NA","NA","2","fake_20","1024","2","48000","-16","experiment","0","even","41488.50640002638","NA","13112.559200264513","46074.724399950355","NA","39656.39130026102","10742.842300329357","313202.01699994504","NA","NA","313708.71130004525","48319.733399897814","10782.69200026989","NA","NA","NA","NA","NA","NA","NA","NA","NA","43363.63960010931","NA","313708.99680024013","75389.60860017687","313196.50379987434","NA","48263.84619995952","NA","43315.783800091594","318219.93139991537","NA","41485.33200006932","NA","NA","New experiment","38","201324.9113978818","54","1024"
"70","NA","70","3728","3728","#3d3846","psycho","NA","1","undefined","undefined","1","left","0","0","0","0","0","0","0","53","NA","0","53","0","0","NA","NA","NA","0","NA","NA","NA","NA","NA","0","NA","53","0","53","0","0","0","0","53","0","0","0","NA","Thu Oct 26 17:05:30 2023","20","The main experiment item","yes","CogPsy_Assignment_With_Instruction.osexp","C:\Users\ilinc\Downloads","no","mono","no","18","no","white","no","color, sharpness, hologram, light identification","yes","768","C:/Users/ilinc/OneDrive/Desktop/subject-0.csv","fake","Melodramatic Milgram","4.0.5","DullHologram","color, sharpness, hologram, light identification","space","NA","space","space","NA","left","4510.254299733788","1490.9220999106765","NA","27069.294600281864","2325.011699926108","NA","4510.254299733788","NA","NA","2","fake_20","1024","2","48000","-16","experiment","0","even","41488.50640002638","NA","13112.559200264513","46074.724399950355","NA","39656.39130026102","10742.842300329357","313202.01699994504","NA","NA","313708.71130004525","48319.733399897814","10782.69200026989","NA","NA","NA","344275.401300285","NA","NA","NA","NA","NA","43363.63960010931","NA","313708.99680024013","75389.60860017687","313196.50379987434","NA","48263.84619995952","318375.72020012885","43315.783800091594","318219.93139991537","NA","41485.33200006932","NA","NA","New experiment","38","201324.9113978818","54","1024"
"70","NA","70","3728","3728","#3d3846","psycho","NA","1","undefined","undefined","1","left","0","0","0","0","0","0","0","53","NA","0","53","0","0","NA","NA","NA","0","NA","NA","NA","NA","NA","0","NA","53","0","53","0","0","0","0","53","0","0","0","NA","Thu Oct 26 17:05:30 2023","20","The main experiment item","yes","CogPsy_Assignment_With_Instruction.osexp","C:\Users\ilinc\Downloads","no","mono","no","18","no","white","no","Ok","yes","768","C:/Users/ilinc/OneDrive/Desktop/subject-0.csv","fake","Melodramatic Milgram","4.0.5","DullHologram","Silver strip (security thread);UV hologram;Colors of text;Ink quality","space","NA","space","space","NA","left","4510.254299733788","1490.9220999106765","NA","27069.294600281864","2325.011699926108","NA","4510.254299733788","NA","NA","2","fake_20","1024","2","48000","-16","experiment","0","even","41488.50640002638","NA","13112.559200264513","46074.724399950355","NA","39656.39130026102","10742.842300329357","313202.01699994504","NA","NA","313708.71130004525","48319.733399897814","10782.69200026989","NA","NA","NA","344275.401300285","NA","NA","NA","NA","NA","43363.63960010931","NA","313708.99680024013","75389.60860017687","313196.50379987434","NA","48263.84619995952","318375.72020012885","43315.783800091594","318219.93139991537","NA","41485.33200006932","369829.44000000134","NA","New experiment","38","201324.9113978818","54","1024"
