"acc","accept_status","accuracy","average_response_time","avg_rt","background","canvas_backend","checkbox_status","correct","correct_consent_sketchpad","correct_instruction_sketchpad","correct_new_keyboard_response","correct_response","count_age_form","count_checkbox_security_form","count_consent_sketchpad","count_country_logger","count_eurozone_form","count_eurozone_logger","count_experiment","count_fixation_dots","count_getting_started","count_goodbye_sketchpad","count_images_sketchpad","count_information_display_sketchpad","count_instruction_sketchpad","count_new_1_form_base","count_new_1_form_text_input","count_new_1_sketchpad","count_new_2_logger","count_new_4_form_multiple_choice","count_new_form_base","count_new_form_consent","count_new_form_multiple_choice","count_new_form_text_display","count_new_form_text_input","count_new_inline_script","count_new_keyboard_response","count_new_loop","count_new_sequence","count_occupation_form","count_occupation_logger","count_open_security_input_form","count_personal_data_logger","count_response_logger","count_schooling_level_form","count_schooling_logger","count_security_feature_logger","count_welcome","datetime","denomination","description","disable_garbage_collection","experiment_file","experiment_path","font_bold","font_family","font_italic","font_size","font_underline","foreground","form_clicks","form_response","fullscreen","height","logfile","note_type","opensesame_codename","opensesame_version","reason","response","response_consent_sketchpad","response_goodbye_sketchpad","response_information_display_sketchpad","response_instruction_sketchpad","response_new_1_sketchpad","response_new_keyboard_response","response_time","response_time_consent_sketchpad","response_time_goodbye_sketchpad","response_time_information_display_sketchpad","response_time_instruction_sketchpad","response_time_new_1_sketchpad","response_time_new_keyboard_response","response_time_welcome","response_welcome","round_decimals","show","sound_buf_size","sound_channels","sound_freq","sound_sample_size","start","subject_nr","subject_parity","time_age_form","time_checkbox_security_form","time_consent_sketchpad","time_country_logger","time_eurozone_form","time_eurozone_logger","time_experiment","time_fixation_dots","time_getting_started","time_goodbye_sketchpad","time_images_sketchpad","time_information_display_sketchpad","time_instruction_sketchpad","time_new_1_form_base","time_new_1_form_text_input","time_new_1_sketchpad","time_new_2_logger","time_new_4_form_multiple_choice","time_new_form_base","time_new_form_consent","time_new_form_multiple_choice","time_new_form_text_display","time_new_form_text_input","time_new_inline_script","time_new_keyboard_response","time_new_loop","time_new_sequence","time_occupation_form","time_occupation_logger","time_open_security_input_form","time_personal_data_logger","time_response_logger","time_schooling_level_form","time_schooling_logger","time_security_feature_logger","time_welcome","title","total_correct","total_response_time","total_responses","width"
"undefined","NA","undefined","undefined","undefined","#3d3846","psycho","NA","undefined","undefined","undefined","NA","NA","0","0","0","0","0","0","0","NA","NA","0","NA","0","0","NA","NA","NA","0","NA","NA","NA","NA","NA","0","NA","NA","0","NA","0","0","0","0","NA","0","0","0","NA","Thu Oct 26 17:19:47 2023","NA","The main experiment item","yes","CogPsy_Assignment_With_Instruction.osexp","C:/Users/lukas/OneDrive/Dokumente/Uni/VU/P1/Cognitive Psych/Experiment","no","mono","no","18","no","white","no","Yes","yes","768","C:/Users/lukas/OneDrive/Dokumente/Uni/VU/P1/Cognitive Psych/Experiment/log_without/subject-0.csv","NA","Melodramatic Milgram","4.0.5","NA","Yes","right","NA","NA","right","NA","NA","994.1758000059053","994.1758000059053","NA","NA","4233.392000009189","NA","NA","NA","NA","2","NA","1024","2","48000","-16","experiment","0","even","NA","NA","14143.970000004629","NA","NA","17249.662200003513","9859.897700007423","NA","NA","NA","NA","NA","9905.462299997453","NA","NA","NA","NA","NA","NA","NA","NA","NA","NA","NA","NA","NA","NA","NA","NA","NA","NA","NA","NA","NA","NA","NA","New experiment","0","0","0","1024"
"undefined","NA","undefined","undefined","undefined","#3d3846","psycho","NA","undefined","undefined","undefined","NA","NA","0","0","0","0","0","0","0","NA","NA","0","NA","0","0","NA","NA","NA","0","NA","NA","NA","NA","NA","0","NA","NA","0","NA","0","0","0","0","NA","0","0","0","NA","Thu Oct 26 17:19:47 2023","NA","The main experiment item","yes","CogPsy_Assignment_With_Instruction.osexp","C:/Users/lukas/OneDrive/Dokumente/Uni/VU/P1/Cognitive Psych/Experiment","no","mono","no","18","no","white","no","Bachelors","yes","768","C:/Users/lukas/OneDrive/Dokumente/Uni/VU/P1/Cognitive Psych/Experiment/log_without/subject-0.csv","NA","Melodramatic Milgram","4.0.5","NA","Bachelors","right","NA","NA","right","NA","NA","994.1758000059053","994.1758000059053","NA","NA","4233.392000009189","NA","NA","NA","NA","2","NA","1024","2","48000","-16","experiment","0","even","NA","NA","14143.970000004629","NA","NA","17249.662200003513","9859.897700007423","NA","NA","NA","NA","NA","9905.462299997453","NA","NA","NA","NA","NA","NA","NA","NA","NA","NA","NA","NA","NA","NA","NA","NA","NA","NA","NA","NA","20067.656500003068","NA","NA","New experiment","0","0","0","1024"
"undefined","NA","undefined","undefined","undefined","#3d3846","psycho","NA","undefined","undefined","undefined","NA","NA","0","0","0","0","0","0","0","NA","NA","0","NA","0","0","NA","NA","NA","0","NA","NA","NA","NA","NA","0","NA","NA","0","NA","0","0","0","0","NA","0","0","0","NA","Thu Oct 26 17:19:47 2023","NA","The main experiment item","yes","CogPsy_Assignment_With_Instruction.osexp","C:/Users/lukas/OneDrive/Dokumente/Uni/VU/P1/Cognitive Psych/Experiment","no","mono","no","18","no","white","no","22","yes","768","C:/Users/lukas/OneDrive/Dokumente/Uni/VU/P1/Cognitive Psych/Experiment/log_without/subject-0.csv","NA","Melodramatic Milgram","4.0.5","NA","22","right","NA","NA","right","NA","NA","994.1758000059053","994.1758000059053","NA","NA","4233.392000009189","NA","NA","NA","NA","2","NA","1024","2","48000","-16","experiment","0","even","20070.709300009185","NA","14143.970000004629","NA","NA","17249.662200003513","9859.897700007423","NA","NA","NA","NA","NA","9905.462299997453","NA","NA","NA","NA","NA","NA","NA","NA","NA","NA","NA","NA","NA","NA","NA","NA","NA","22084.472200003802","NA","NA","20067.656500003068","NA","NA","New experiment","0","0","0","1024"
"undefined","NA","undefined","undefined","undefined","#3d3846","psycho","NA","undefined","undefined","undefined","NA","NA","0","0","0","0","0","0","0","NA","NA","0","NA","0","0","NA","NA","NA","0","NA","NA","NA","NA","NA","0","NA","NA","0","NA","0","0","0","0","NA","0","0","0","NA","Thu Oct 26 17:19:47 2023","NA","The main experiment item","yes","CogPsy_Assignment_With_Instruction.osexp","C:/Users/lukas/OneDrive/Dokumente/Uni/VU/P1/Cognitive Psych/Experiment","no","mono","no","18","no","white","no","German","yes","768","C:/Users/lukas/OneDrive/Dokumente/Uni/VU/P1/Cognitive Psych/Experiment/log_without/subject-0.csv","NA","Melodramatic Milgram","4.0.5","NA","German","right","NA","NA","right","NA","NA","994.1758000059053","994.1758000059053","NA","NA","4233.392000009189","NA","NA","NA","NA","2","NA","1024","2","48000","-16","experiment","0","even","20070.709300009185","NA","14143.970000004629","23936.2822999974","NA","17249.662200003513","9859.897700007423","NA","NA","NA","NA","NA","9905.462299997453","NA","NA","NA","NA","NA","NA","NA","NA","NA","22087.63639999961","NA","NA","NA","NA","NA","NA","NA","22084.472200003802","NA","NA","20067.656500003068","NA","NA","New experiment","0","0","0","1024"
"undefined","NA","undefined","undefined","undefined","#3d3846","psycho","NA","undefined","undefined","undefined","NA","NA","0","0","0","0","0","0","0","NA","NA","0","NA","0","0","NA","NA","NA","0","NA","NA","NA","NA","NA","0","NA","NA","0","NA","0","0","0","0","NA","0","0","0","NA","Thu Oct 26 17:19:47 2023","NA","The main experiment item","yes","CogPsy_Assignment_With_Instruction.osexp","C:/Users/lukas/OneDrive/Dokumente/Uni/VU/P1/Cognitive Psych/Experiment","no","mono","no","18","no","white","no","Student","yes","768","C:/Users/lukas/OneDrive/Dokumente/Uni/VU/P1/Cognitive Psych/Experiment/log_without/subject-0.csv","NA","Melodramatic Milgram","4.0.5","NA","Student","right","NA","NA","right","NA","NA","994.1758000059053","994.1758000059053","NA","NA","4233.392000009189","NA","NA","NA","NA","2","NA","1024","2","48000","-16","experiment","0","even","20070.709300009185","NA","14143.970000004629","23936.2822999974","NA","17249.662200003513","9859.897700007423","NA","NA","NA","NA","NA","9905.462299997453","NA","NA","NA","NA","NA","NA","NA","NA","NA","22087.63639999961","NA","NA","NA","NA","NA","26084.59870000661","NA","22084.472200003802","NA","NA","20067.656500003068","NA","NA","New experiment","0","0","0","1024"
"100","NA","100","8181","8181","#3d3846","psycho","NA","1","undefined","undefined","1","left","0","0","0","0","0","0","0","0","NA","0","0","0","0","NA","NA","NA","0","NA","NA","NA","NA","NA","0","NA","0","0","0","0","0","0","0","0","0","0","0","NA","Thu Oct 26 17:19:47 2023","50","The main experiment item","yes","CogPsy_Assignment_With_Instruction.osexp","C:/Users/lukas/OneDrive/Dokumente/Uni/VU/P1/Cognitive Psych/Experiment","no","mono","no","18","no","white","no","Student","yes","768","C:/Users/lukas/OneDrive/Dokumente/Uni/VU/P1/Cognitive Psych/Experiment/log_without/subject-0.csv","fake","Melodramatic Milgram","4.0.5","bottom_left","left","right","NA","right","right","NA","left","8181.782100000419","994.1758000059053","NA","1183.8924000039697","4233.392000009189","NA","8181.782100000419","NA","NA","2","fake_1_50","1024","2","48000","-16","experiment","0","even","20070.709300009185","NA","14143.970000004629","23936.2822999974","NA","17249.662200003513","9859.897700007423","27349.69529999944","NA","NA","27854.374500006088","26099.81770000013","9905.462299997453","NA","NA","NA","NA","NA","NA","NA","NA","NA","22087.63639999961","NA","27854.50359999959","27284.204399999","27344.774800003506","NA","26084.59870000661","NA","22084.472200003802","36036.74370000954","NA","20067.656500003068","NA","NA","New experiment","1","8181.782100000419","1","1024"
"50","NA","50","9235","9235","#3d3846","psycho","NA","0","undefined","undefined","0","left","0","0","0","0","0","0","0","1","NA","0","1","0","0","NA","NA","NA","0","NA","NA","NA","NA","NA","0","NA","1","0","1","0","0","0","0","1","0","0","0","NA","Thu Oct 26 17:19:47 2023","50","The main experiment item","yes","CogPsy_Assignment_With_Instruction.osexp","C:/Users/lukas/OneDrive/Dokumente/Uni/VU/P1/Cognitive Psych/Experiment","no","mono","no","18","no","white","no","Student","yes","768","C:/Users/lukas/OneDrive/Dokumente/Uni/VU/P1/Cognitive Psych/Experiment/log_without/subject-0.csv","fake","Melodramatic Milgram","4.0.5","silver_strip","right","right","NA","right","right","NA","right","10288.725000005797","994.1758000059053","NA","1183.8924000039697","4233.392000009189","NA","10288.725000005797","NA","NA","2","fake_2_50","1024","2","48000","-16","experiment","0","even","20070.709300009185","NA","14143.970000004629","23936.2822999974","NA","17249.662200003513","9859.897700007423","36255.00030000694","NA","NA","36759.667400008766","26099.81770000013","9905.462299997453","NA","NA","NA","NA","NA","NA","NA","NA","NA","22087.63639999961","NA","36759.79399999778","27284.204399999","36250.03940000897","NA","26084.59870000661","NA","22084.472200003802","47048.92729999847","NA","20067.656500003068","NA","NA","New experiment","1","18470.507100006216","2","1024"
"66","NA","66","7398","7398","#3d3846","psycho","NA","1","undefined","undefined","1","left","0","0","0","0","0","0","0","2","NA","0","2","0","0","NA","NA","NA","0","NA","NA","NA","NA","NA","0","NA","2","0","2","0","0","0","0","2","0","0","0","NA","Thu Oct 26 17:19:47 2023","20","The main experiment item","yes","CogPsy_Assignment_With_Instruction.osexp","C:/Users/lukas/OneDrive/Dokumente/Uni/VU/P1/Cognitive Psych/Experiment","no","mono","no","18","no","white","no","Student","yes","768","C:/Users/lukas/OneDrive/Dokumente/Uni/VU/P1/Cognitive Psych/Experiment/log_without/subject-0.csv","fake","Melodramatic Milgram","4.0.5","BrownDenomination","left","right","NA","right","right","NA","left","3726.430900002015","994.1758000059053","NA","1183.8924000039697","4233.392000009189","NA","3726.430900002015","NA","NA","2","fake_20","1024","2","48000","-16","experiment","0","even","20070.709300009185","NA","14143.970000004629","23936.2822999974","NA","17249.662200003513","9859.897700007423","47190.38620000356","NA","NA","47694.77070000721","26099.81770000013","9905.462299997453","NA","NA","NA","NA","NA","NA","NA","NA","NA","22087.63639999961","NA","47695.09910000488","27284.204399999","47185.27040000481","NA","26084.59870000661","NA","22084.472200003802","51422.14910000621","NA","20067.656500003068","NA","NA","New experiment","2","22196.93800000823","3","1024"
"75","NA","75","6078","6078","#3d3846","psycho","NA","1","undefined","undefined","1","right","0","0","0","0","0","0","0","3","NA","0","3","0","0","NA","NA","NA","0","NA","NA","NA","NA","NA","0","NA","3","0","3","0","0","0","0","3","0","0","0","NA","Thu Oct 26 17:19:47 2023","20","The main experiment item","yes","CogPsy_Assignment_With_Instruction.osexp","C:/Users/lukas/OneDrive/Dokumente/Uni/VU/P1/Cognitive Psych/Experiment","no","mono","no","18","no","white","no","Student","yes","768","C:/Users/lukas/OneDrive/Dokumente/Uni/VU/P1/Cognitive Psych/Experiment/log_without/subject-0.csv","real","Melodramatic Milgram","4.0.5","photo","right","right","NA","right","right","NA","right","2116.7512999963947","994.1758000059053","NA","1183.8924000039697","4233.392000009189","NA","2116.7512999963947","NA","NA","2","real_20","1024","2","48000","-16","experiment","0","even","20070.709300009185","NA","14143.970000004629","23936.2822999974","NA","17249.662200003513","9859.897700007423","51581.59169999999","NA","NA","52085.4454000073","26099.81770000013","9905.462299997453","NA","NA","NA","NA","NA","NA","NA","NA","NA","22087.63639999961","NA","52085.55030000571","27284.204399999","51576.04410000204","NA","26084.59870000661","NA","22084.472200003802","54202.69510000071","NA","20067.656500003068","NA","NA","New experiment","3","24313.689300004626","4","1024"
"80","NA","80","5422","5422","#3d3846","psycho","NA","1","undefined","undefined","1","right","0","0","0","0","0","0","0","4","NA","0","4","0","0","NA","NA","NA","0","NA","NA","NA","NA","NA","0","NA","4","0","4","0","0","0","0","4","0","0","0","NA","Thu Oct 26 17:19:47 2023","50","The main experiment item","yes","CogPsy_Assignment_With_Instruction.osexp","C:/Users/lukas/OneDrive/Dokumente/Uni/VU/P1/Cognitive Psych/Experiment","no","mono","no","18","no","white","no","Student","yes","768","C:/Users/lukas/OneDrive/Dokumente/Uni/VU/P1/Cognitive Psych/Experiment/log_without/subject-0.csv","real","Melodramatic Milgram","4.0.5","photo_2","right","right","NA","right","right","NA","right","2798.5733000095934","994.1758000059053","NA","1183.8924000039697","4233.392000009189","NA","2798.5733000095934","NA","NA","2","real_50","1024","2","48000","-16","experiment","0","even","20070.709300009185","NA","14143.970000004629","23936.2822999974","NA","17249.662200003513","9859.897700007423","54351.46390000591","NA","NA","54854.899099998875","26099.81770000013","9905.462299997453","NA","NA","NA","NA","NA","NA","NA","NA","NA","22087.63639999961","NA","54855.04829999991","27284.204399999","54346.432899998035","NA","26084.59870000661","NA","22084.472200003802","57654.034000006504","NA","20067.656500003068","NA","NA","New experiment","4","27112.26260001422","5","1024"
"83","NA","83","4833","4833","#3d3846","psycho","NA","1","undefined","undefined","1","right","0","0","0","0","0","0","0","5","NA","0","5","0","0","NA","NA","NA","0","NA","NA","NA","NA","NA","0","NA","5","0","5","0","0","0","0","5","0","0","0","NA","Thu Oct 26 17:19:47 2023","50","The main experiment item","yes","CogPsy_Assignment_With_Instruction.osexp","C:/Users/lukas/OneDrive/Dokumente/Uni/VU/P1/Cognitive Psych/Experiment","no","mono","no","18","no","white","no","Student","yes","768","C:/Users/lukas/OneDrive/Dokumente/Uni/VU/P1/Cognitive Psych/Experiment/log_without/subject-0.csv","real","Melodramatic Milgram","4.0.5","genuine","right","right","NA","right","right","NA","right","1888.2679999951506","994.1758000059053","NA","1183.8924000039697","4233.392000009189","NA","1888.2679999951506","NA","NA","2","real_50","1024","2","48000","-16","experiment","0","even","20070.709300009185","NA","14143.970000004629","23936.2822999974","NA","17249.662200003513","9859.897700007423","57773.26110001013","NA","NA","58277.87440000975","26099.81770000013","9905.462299997453","NA","NA","NA","NA","NA","NA","NA","NA","NA","22087.63639999961","NA","58278.0233000085","27284.204399999","57766.96130000346","NA","26084.59870000661","NA","22084.472200003802","60166.72170000675","NA","20067.656500003068","NA","NA","New experiment","5","29000.53060000937","6","1024"
"71","NA","71","4321","4321","#3d3846","psycho","NA","0","undefined","undefined","0","left","0","0","0","0","0","0","0","6","NA","0","6","0","0","NA","NA","NA","0","NA","NA","NA","NA","NA","0","NA","6","0","6","0","0","0","0","6","0","0","0","NA","Thu Oct 26 17:19:47 2023","20","The main experiment item","yes","CogPsy_Assignment_With_Instruction.osexp","C:/Users/lukas/OneDrive/Dokumente/Uni/VU/P1/Cognitive Psych/Experiment","no","mono","no","18","no","white","no","Student","yes","768","C:/Users/lukas/OneDrive/Dokumente/Uni/VU/P1/Cognitive Psych/Experiment/log_without/subject-0.csv","fake","Melodramatic Milgram","4.0.5","BadInk","right","right","NA","right","right","NA","right","1246.7706000024918","994.1758000059053","NA","1183.8924000039697","4233.392000009189","NA","1246.7706000024918","NA","NA","2","fake_20","1024","2","48000","-16","experiment","0","even","20070.709300009185","NA","14143.970000004629","23936.2822999974","NA","17249.662200003513","9859.897700007423","60304.220999998506","NA","NA","60807.89979999827","26099.81770000013","9905.462299997453","NA","NA","NA","NA","NA","NA","NA","NA","NA","22087.63639999961","NA","60808.000400007586","27284.204399999","60299.2699000024","NA","26084.59870000661","NA","22084.472200003802","62055.189799997606","NA","20067.656500003068","NA","NA","New experiment","5","30247.30120001186","7","1024"
"62","NA","62","4016","4016","#3d3846","psycho","NA","0","undefined","undefined","0","left","0","0","0","0","0","0","0","7","NA","0","7","0","0","NA","NA","NA","0","NA","NA","NA","NA","NA","0","NA","7","0","7","0","0","0","0","7","0","0","0","NA","Thu Oct 26 17:19:47 2023","20","The main experiment item","yes","CogPsy_Assignment_With_Instruction.osexp","C:/Users/lukas/OneDrive/Dokumente/Uni/VU/P1/Cognitive Psych/Experiment","no","mono","no","18","no","white","no","Student","yes","768","C:/Users/lukas/OneDrive/Dokumente/Uni/VU/P1/Cognitive Psych/Experiment/log_without/subject-0.csv","fake","Melodramatic Milgram","4.0.5","BadInk2","right","right","NA","right","right","NA","right","1885.3449000016553","994.1758000059053","NA","1183.8924000039697","4233.392000009189","NA","1885.3449000016553","NA","NA","2","fake_20","1024","2","48000","-16","experiment","0","even","20070.709300009185","NA","14143.970000004629","23936.2822999974","NA","17249.662200003513","9859.897700007423","62273.12140000868","NA","NA","62776.86270000413","26099.81770000013","9905.462299997453","NA","NA","NA","NA","NA","NA","NA","NA","NA","22087.63639999961","NA","62777.15460000036","27284.204399999","62268.15540000098","NA","26084.59870000661","NA","22084.472200003802","64662.951600010274","NA","20067.656500003068","NA","NA","New experiment","5","32132.646100013517","8","1024"
"66","NA","66","3779","3779","#3d3846","psycho","NA","1","undefined","undefined","1","right","0","0","0","0","0","0","0","8","NA","0","8","0","0","NA","NA","NA","0","NA","NA","NA","NA","NA","0","NA","8","0","8","0","0","0","0","8","0","0","0","NA","Thu Oct 26 17:19:47 2023","50","The main experiment item","yes","CogPsy_Assignment_With_Instruction.osexp","C:/Users/lukas/OneDrive/Dokumente/Uni/VU/P1/Cognitive Psych/Experiment","no","mono","no","18","no","white","no","Student","yes","768","C:/Users/lukas/OneDrive/Dokumente/Uni/VU/P1/Cognitive Psych/Experiment/log_without/subject-0.csv","real","Melodramatic Milgram","4.0.5","photo","right","right","NA","right","right","NA","right","1886.6485000035027","994.1758000059053","NA","1183.8924000039697","4233.392000009189","NA","1886.6485000035027","NA","NA","2","real_50","1024","2","48000","-16","experiment","0","even","20070.709300009185","NA","14143.970000004629","23936.2822999974","NA","17249.662200003513","9859.897700007423","64813.81170000532","NA","NA","65317.64860000112","26099.81770000013","9905.462299997453","NA","NA","NA","NA","NA","NA","NA","NA","NA","22087.63639999961","NA","65317.79539999843","27284.204399999","64808.58260000241","NA","26084.59870000661","NA","22084.472200003802","67204.91369999945","NA","20067.656500003068","NA","NA","New experiment","6","34019.29460001702","9","1024"
"60","NA","60","3554","3554","#3d3846","psycho","NA","0","undefined","undefined","0","left","0","0","0","0","0","0","0","9","NA","0","9","0","0","NA","NA","NA","0","NA","NA","NA","NA","NA","0","NA","9","0","9","0","0","0","0","9","0","0","0","NA","Thu Oct 26 17:19:47 2023","20","The main experiment item","yes","CogPsy_Assignment_With_Instruction.osexp","C:/Users/lukas/OneDrive/Dokumente/Uni/VU/P1/Cognitive Psych/Experiment","no","mono","no","18","no","white","no","Student","yes","768","C:/Users/lukas/OneDrive/Dokumente/Uni/VU/P1/Cognitive Psych/Experiment/log_without/subject-0.csv","fake","Melodramatic Milgram","4.0.5","NoNumOnThread_BlurryWatermark","right","right","NA","right","right","NA","right","1525.6912999902852","994.1758000059053","NA","1183.8924000039697","4233.392000009189","NA","1525.6912999902852","NA","NA","2","fake_20","1024","2","48000","-16","experiment","0","even","20070.709300009185","NA","14143.970000004629","23936.2822999974","NA","17249.662200003513","9859.897700007423","67391.41700000619","NA","NA","67895.78790000814","26099.81770000013","9905.462299997453","NA","NA","NA","NA","NA","NA","NA","NA","NA","22087.63639999961","NA","67895.92390001053","27284.204399999","67386.08560001012","NA","26084.59870000661","NA","22084.472200003802","69422.18730000604","NA","20067.656500003068","NA","NA","New experiment","6","35544.985900007305","10","1024"
"63","NA","63","3313","3313","#3d3846","psycho","NA","1","undefined","undefined","1","right","0","0","0","0","0","0","0","10","NA","0","10","0","0","NA","NA","NA","0","NA","NA","NA","NA","NA","0","NA","10","0","10","0","0","0","0","10","0","0","0","NA","Thu Oct 26 17:19:47 2023","20","The main experiment item","yes","CogPsy_Assignment_With_Instruction.osexp","C:/Users/lukas/OneDrive/Dokumente/Uni/VU/P1/Cognitive Psych/Experiment","no","mono","no","18","no","white","no","Student","yes","768","C:/Users/lukas/OneDrive/Dokumente/Uni/VU/P1/Cognitive Psych/Experiment/log_without/subject-0.csv","real","Melodramatic Milgram","4.0.5","genuine","right","right","NA","right","right","NA","right","898.9256000058958","994.1758000059053","NA","1183.8924000039697","4233.392000009189","NA","898.9256000058958","NA","NA","2","real_20","1024","2","48000","-16","experiment","0","even","20070.709300009185","NA","14143.970000004629","23936.2822999974","NA","17249.662200003513","9859.897700007423","69544.05510000652","NA","NA","70047.32320000767","26099.81770000013","9905.462299997453","NA","NA","NA","NA","NA","NA","NA","NA","NA","22087.63639999961","NA","70047.5174000021","27284.204399999","69537.33360000479","NA","26084.59870000661","NA","22084.472200003802","70946.96270000713","NA","20067.656500003068","NA","NA","New experiment","7","36443.9115000132","11","1024"
"66","NA","66","3173","3173","#3d3846","psycho","NA","1","undefined","undefined","1","left","0","0","0","0","0","0","0","11","NA","0","11","0","0","NA","NA","NA","0","NA","NA","NA","NA","NA","0","NA","11","0","11","0","0","0","0","11","0","0","0","NA","Thu Oct 26 17:19:47 2023","50","The main experiment item","yes","CogPsy_Assignment_With_Instruction.osexp","C:/Users/lukas/OneDrive/Dokumente/Uni/VU/P1/Cognitive Psych/Experiment","no","mono","no","18","no","white","no","Student","yes","768","C:/Users/lukas/OneDrive/Dokumente/Uni/VU/P1/Cognitive Psych/Experiment/log_without/subject-0.csv","fake","Melodramatic Milgram","4.0.5","GreyDenomination","left","right","NA","right","right","NA","left","1637.4134000070626","994.1758000059053","NA","1183.8924000039697","4233.392000009189","NA","1637.4134000070626","NA","NA","2","fake_2_50","1024","2","48000","-16","experiment","0","even","20070.709300009185","NA","14143.970000004629","23936.2822999974","NA","17249.662200003513","9859.897700007423","71096.01530000509","NA","NA","71599.23220000928","26099.81770000013","9905.462299997453","NA","NA","NA","NA","NA","NA","NA","NA","NA","22087.63639999961","NA","71599.43010000279","27284.204399999","71090.81419999711","NA","26084.59870000661","NA","22084.472200003802","73237.30010000872","NA","20067.656500003068","NA","NA","New experiment","8","38081.32490002026","12","1024"
"61","NA","61","3006","3006","#3d3846","psycho","NA","0","undefined","undefined","0","left","0","0","0","0","0","0","0","12","NA","0","12","0","0","NA","NA","NA","0","NA","NA","NA","NA","NA","0","NA","12","0","12","0","0","0","0","12","0","0","0","NA","Thu Oct 26 17:19:47 2023","20","The main experiment item","yes","CogPsy_Assignment_With_Instruction.osexp","C:/Users/lukas/OneDrive/Dokumente/Uni/VU/P1/Cognitive Psych/Experiment","no","mono","no","18","no","white","no","Student","yes","768","C:/Users/lukas/OneDrive/Dokumente/Uni/VU/P1/Cognitive Psych/Experiment/log_without/subject-0.csv","fake","Melodramatic Milgram","4.0.5","DullHologram","right","right","NA","right","right","NA","right","999.4880000012927","994.1758000059053","NA","1183.8924000039697","4233.392000009189","NA","999.4880000012927","NA","NA","2","fake_20","1024","2","48000","-16","experiment","0","even","20070.709300009185","NA","14143.970000004629","23936.2822999974","NA","17249.662200003513","9859.897700007423","73388.84220000182","NA","NA","73893.53690001008","26099.81770000013","9905.462299997453","NA","NA","NA","NA","NA","NA","NA","NA","NA","22087.63639999961","NA","73893.70830000553","27284.204399999","73384.31229999696","NA","26084.59870000661","NA","22084.472200003802","74893.61430000281","NA","20067.656500003068","NA","NA","New experiment","8","39080.812900021556","13","1024"
"64","NA","64","3788","3788","#3d3846","psycho","NA","1","undefined","undefined","1","right","0","0","0","0","0","0","0","13","NA","0","13","0","0","NA","NA","NA","0","NA","NA","NA","NA","NA","0","NA","13","0","13","0","0","0","0","13","0","0","0","NA","Thu Oct 26 17:19:47 2023","20","The main experiment item","yes","CogPsy_Assignment_With_Instruction.osexp","C:/Users/lukas/OneDrive/Dokumente/Uni/VU/P1/Cognitive Psych/Experiment","no","mono","no","18","no","white","no","Student","yes","768","C:/Users/lukas/OneDrive/Dokumente/Uni/VU/P1/Cognitive Psych/Experiment/log_without/subject-0.csv","real","Melodramatic Milgram","4.0.5","genuine","right","right","NA","right","right","NA","right","13952.459799998906","994.1758000059053","NA","1183.8924000039697","4233.392000009189","NA","13952.459799998906","NA","NA","2","real_20","1024","2","48000","-16","experiment","0","even","20070.709300009185","NA","14143.970000004629","23936.2822999974","NA","17249.662200003513","9859.897700007423","74992.81940000947","NA","NA","75496.5147000039","26099.81770000013","9905.462299997453","NA","NA","NA","NA","NA","NA","NA","NA","NA","22087.63639999961","NA","75496.64610000036","27284.204399999","74988.59439999796","NA","26084.59870000661","NA","22084.472200003802","89449.5348000055","NA","20067.656500003068","NA","NA","New experiment","9","53033.27270002046","14","1024"
"66","NA","66","3635","3635","#3d3846","psycho","NA","1","undefined","undefined","1","right","0","0","0","0","0","0","0","14","NA","0","14","0","0","NA","NA","NA","0","NA","NA","NA","NA","NA","0","NA","14","0","14","0","0","0","0","14","0","0","0","NA","Thu Oct 26 17:19:47 2023","50","The main experiment item","yes","CogPsy_Assignment_With_Instruction.osexp","C:/Users/lukas/OneDrive/Dokumente/Uni/VU/P1/Cognitive Psych/Experiment","no","mono","no","18","no","white","no","Student","yes","768","C:/Users/lukas/OneDrive/Dokumente/Uni/VU/P1/Cognitive Psych/Experiment/log_without/subject-0.csv","real","Melodramatic Milgram","4.0.5","genuine","right","right","NA","right","right","NA","right","1504.6848999918438","994.1758000059053","NA","1183.8924000039697","4233.392000009189","NA","1504.6848999918438","NA","NA","2","real_20","1024","2","48000","-16","experiment","0","even","20070.709300009185","NA","14143.970000004629","23936.2822999974","NA","17249.662200003513","9859.897700007423","89567.00809999893","NA","NA","90070.48799999757","26099.81770000013","9905.462299997453","NA","NA","NA","NA","NA","NA","NA","NA","NA","22087.63639999961","NA","90070.61200001044","27284.204399999","89562.92170000961","NA","26084.59870000661","NA","22084.472200003802","91575.76110000082","NA","20067.656500003068","NA","NA","New experiment","10","54537.957600012305","15","1024"
"68","NA","68","3495","3495","#3d3846","psycho","NA","1","undefined","undefined","1","right","0","0","0","0","0","0","0","15","NA","0","15","0","0","NA","NA","NA","0","NA","NA","NA","NA","NA","0","NA","15","0","15","0","0","0","0","15","0","0","0","NA","Thu Oct 26 17:19:47 2023","20","The main experiment item","yes","CogPsy_Assignment_With_Instruction.osexp","C:/Users/lukas/OneDrive/Dokumente/Uni/VU/P1/Cognitive Psych/Experiment","no","mono","no","18","no","white","no","Student","yes","768","C:/Users/lukas/OneDrive/Dokumente/Uni/VU/P1/Cognitive Psych/Experiment/log_without/subject-0.csv","real","Melodramatic Milgram","4.0.5","genuine","right","right","NA","right","right","NA","right","1394.0617999905953","994.1758000059053","NA","1183.8924000039697","4233.392000009189","NA","1394.0617999905953","NA","NA","2","real_20","1024","2","48000","-16","experiment","0","even","20070.709300009185","NA","14143.970000004629","23936.2822999974","NA","17249.662200003513","9859.897700007423","91686.27079999715","NA","NA","92190.16090000514","26099.81770000013","9905.462299997453","NA","NA","NA","NA","NA","NA","NA","NA","NA","22087.63639999961","NA","92190.35060000897","27284.204399999","91681.83190000127","NA","26084.59870000661","NA","22084.472200003802","93584.8224000074","NA","20067.656500003068","NA","NA","New experiment","11","55932.0194000029","16","1024"
"70","NA","70","3675","3675","#3d3846","psycho","NA","1","undefined","undefined","1","left","0","0","0","0","0","0","0","16","NA","0","16","0","0","NA","NA","NA","0","NA","NA","NA","NA","NA","0","NA","16","0","16","0","0","0","0","16","0","0","0","NA","Thu Oct 26 17:19:47 2023","20","The main experiment item","yes","CogPsy_Assignment_With_Instruction.osexp","C:/Users/lukas/OneDrive/Dokumente/Uni/VU/P1/Cognitive Psych/Experiment","no","mono","no","18","no","white","no","Student","yes","768","C:/Users/lukas/OneDrive/Dokumente/Uni/VU/P1/Cognitive Psych/Experiment/log_without/subject-0.csv","fake","Melodramatic Milgram","4.0.5","NoNumOnThread_BlurryWatermark","left","right","NA","right","right","NA","left","6548.948299998301","994.1758000059053","NA","1183.8924000039697","4233.392000009189","NA","6548.948299998301","NA","NA","2","fake_20","1024","2","48000","-16","experiment","0","even","20070.709300009185","NA","14143.970000004629","23936.2822999974","NA","17249.662200003513","9859.897700007423","93743.33730000944","NA","NA","94247.19229999755","26099.81770000013","9905.462299997453","NA","NA","NA","NA","NA","NA","NA","NA","NA","22087.63639999961","NA","94247.40100000054","27284.204399999","93738.07150000357","NA","26084.59870000661","NA","22084.472200003802","100796.94380000001","NA","20067.656500003068","NA","NA","New experiment","12","62480.9677000012","17","1024"
"66","NA","66","3726","3726","#3d3846","psycho","NA","0","undefined","undefined","0","right","0","0","0","0","0","0","0","17","NA","0","17","0","0","NA","NA","NA","0","NA","NA","NA","NA","NA","0","NA","17","0","17","0","0","0","0","17","0","0","0","NA","Thu Oct 26 17:19:47 2023","50","The main experiment item","yes","CogPsy_Assignment_With_Instruction.osexp","C:/Users/lukas/OneDrive/Dokumente/Uni/VU/P1/Cognitive Psych/Experiment","no","mono","no","18","no","white","no","Student","yes","768","C:/Users/lukas/OneDrive/Dokumente/Uni/VU/P1/Cognitive Psych/Experiment/log_without/subject-0.csv","real","Melodramatic Milgram","4.0.5","photo","left","right","NA","right","right","NA","left","4604.539599997224","994.1758000059053","NA","1183.8924000039697","4233.392000009189","NA","4604.539599997224","NA","NA","2","real_50","1024","2","48000","-16","experiment","0","even","20070.709300009185","NA","14143.970000004629","23936.2822999974","NA","17249.662200003513","9859.897700007423","100929.99590000545","NA","NA","101433.6825000064","26099.81770000013","9905.462299997453","NA","NA","NA","NA","NA","NA","NA","NA","NA","22087.63639999961","NA","101433.79920000734","27284.204399999","100925.0805000047","NA","26084.59870000661","NA","22084.472200003802","106038.79180000513","NA","20067.656500003068","NA","NA","New experiment","12","67085.50729999843","18","1024"
"63","NA","63","3681","3681","#3d3846","psycho","NA","0","undefined","undefined","0","left","0","0","0","0","0","0","0","18","NA","0","18","0","0","NA","NA","NA","0","NA","NA","NA","NA","NA","0","NA","18","0","18","0","0","0","0","18","0","0","0","NA","Thu Oct 26 17:19:47 2023","20","The main experiment item","yes","CogPsy_Assignment_With_Instruction.osexp","C:/Users/lukas/OneDrive/Dokumente/Uni/VU/P1/Cognitive Psych/Experiment","no","mono","no","18","no","white","no","Student","yes","768","C:/Users/lukas/OneDrive/Dokumente/Uni/VU/P1/Cognitive Psych/Experiment/log_without/subject-0.csv","fake","Melodramatic Milgram","4.0.5","silver_strip","right","right","NA","right","right","NA","right","2863.266800006386","994.1758000059053","NA","1183.8924000039697","4233.392000009189","NA","2863.266800006386","NA","NA","2","fake_2_20","1024","2","48000","-16","experiment","0","even","20070.709300009185","NA","14143.970000004629","23936.2822999974","NA","17249.662200003513","9859.897700007423","106174.9267999985","NA","NA","106678.63039999793","26099.81770000013","9905.462299997453","NA","NA","NA","NA","NA","NA","NA","NA","NA","22087.63639999961","NA","106678.77929999668","27284.204399999","106169.71820000617","NA","26084.59870000661","NA","22084.472200003802","109542.80570000992","NA","20067.656500003068","NA","NA","New experiment","12","69948.77410000481","19","1024"
"65","NA","65","3690","3690","#3d3846","psycho","NA","1","undefined","undefined","1","right","0","0","0","0","0","0","0","19","NA","0","19","0","0","NA","NA","NA","0","NA","NA","NA","NA","NA","0","NA","19","0","19","0","0","0","0","19","0","0","0","NA","Thu Oct 26 17:19:47 2023","20","The main experiment item","yes","CogPsy_Assignment_With_Instruction.osexp","C:/Users/lukas/OneDrive/Dokumente/Uni/VU/P1/Cognitive Psych/Experiment","no","mono","no","18","no","white","no","Student","yes","768","C:/Users/lukas/OneDrive/Dokumente/Uni/VU/P1/Cognitive Psych/Experiment/log_without/subject-0.csv","real","Melodramatic Milgram","4.0.5","photo","right","right","NA","right","right","NA","right","3859.9869000026956","994.1758000059053","NA","1183.8924000039697","4233.392000009189","NA","3859.9869000026956","NA","NA","2","real_20","1024","2","48000","-16","experiment","0","even","20070.709300009185","NA","14143.970000004629","23936.2822999974","NA","17249.662200003513","9859.897700007423","109786.40120000637","NA","NA","110291.88669999712","26099.81770000013","9905.462299997453","NA","NA","NA","NA","NA","NA","NA","NA","NA","22087.63639999961","NA","110292.14230000798","27284.204399999","109780.62510000018","NA","26084.59870000661","NA","22084.472200003802","114152.60090000811","NA","20067.656500003068","NA","NA","New experiment","13","73808.76100000751","20","1024"
"66","NA","66","3770","3770","#3d3846","psycho","NA","1","undefined","undefined","1","left","0","0","0","0","0","0","0","20","NA","0","20","0","0","NA","NA","NA","0","NA","NA","NA","NA","NA","0","NA","20","0","20","0","0","0","0","20","0","0","0","NA","Thu Oct 26 17:19:47 2023","50","The main experiment item","yes","CogPsy_Assignment_With_Instruction.osexp","C:/Users/lukas/OneDrive/Dokumente/Uni/VU/P1/Cognitive Psych/Experiment","no","mono","no","18","no","white","no","Student","yes","768","C:/Users/lukas/OneDrive/Dokumente/Uni/VU/P1/Cognitive Psych/Experiment/log_without/subject-0.csv","fake","Melodramatic Milgram","4.0.5","PurpleDenomination2","left","right","NA","right","right","NA","left","5379.09609999042","994.1758000059053","NA","1183.8924000039697","4233.392000009189","NA","5379.09609999042","NA","NA","2","fake_2_50","1024","2","48000","-16","experiment","0","even","20070.709300009185","NA","14143.970000004629","23936.2822999974","NA","17249.662200003513","9859.897700007423","114319.75219999731","NA","NA","114823.02120000531","26099.81770000013","9905.462299997453","NA","NA","NA","NA","NA","NA","NA","NA","NA","22087.63639999961","NA","114823.16850000643","27284.204399999","114314.29360000766","NA","26084.59870000661","NA","22084.472200003802","120202.7276000008","NA","20067.656500003068","NA","NA","New experiment","14","79187.85709999793","21","1024"
"68","NA","68","3655","3655","#3d3846","psycho","NA","1","undefined","undefined","1","right","0","0","0","0","0","0","0","21","NA","0","21","0","0","NA","NA","NA","0","NA","NA","NA","NA","NA","0","NA","21","0","21","0","0","0","0","21","0","0","0","NA","Thu Oct 26 17:19:47 2023","20","The main experiment item","yes","CogPsy_Assignment_With_Instruction.osexp","C:/Users/lukas/OneDrive/Dokumente/Uni/VU/P1/Cognitive Psych/Experiment","no","mono","no","18","no","white","no","Student","yes","768","C:/Users/lukas/OneDrive/Dokumente/Uni/VU/P1/Cognitive Psych/Experiment/log_without/subject-0.csv","real","Melodramatic Milgram","4.0.5","photo","right","right","NA","right","right","NA","right","1237.7899999992223","994.1758000059053","NA","1183.8924000039697","4233.392000009189","NA","1237.7899999992223","NA","NA","2","real_20","1024","2","48000","-16","experiment","0","even","20070.709300009185","NA","14143.970000004629","23936.2822999974","NA","17249.662200003513","9859.897700007423","120341.24249999877","NA","NA","120845.10320000118","26099.81770000013","9905.462299997453","NA","NA","NA","NA","NA","NA","NA","NA","NA","22087.63639999961","NA","120845.28130000399","27284.204399999","120336.53120000963","NA","26084.59870000661","NA","22084.472200003802","122083.54870000039","NA","20067.656500003068","NA","NA","New experiment","15","80425.64709999715","22","1024"
"69","NA","69","3561","3561","#3d3846","psycho","NA","1","undefined","undefined","1","left","0","0","0","0","0","0","0","22","NA","0","22","0","0","NA","NA","NA","0","NA","NA","NA","NA","NA","0","NA","22","0","22","0","0","0","0","22","0","0","0","NA","Thu Oct 26 17:19:47 2023","50","The main experiment item","yes","CogPsy_Assignment_With_Instruction.osexp","C:/Users/lukas/OneDrive/Dokumente/Uni/VU/P1/Cognitive Psych/Experiment","no","mono","no","18","no","white","no","Student","yes","768","C:/Users/lukas/OneDrive/Dokumente/Uni/VU/P1/Cognitive Psych/Experiment/log_without/subject-0.csv","fake","Melodramatic Milgram","4.0.5","GreyDenomination","left","right","NA","right","right","NA","left","1480.618300003698","994.1758000059053","NA","1183.8924000039697","4233.392000009189","NA","1480.618300003698","NA","NA","2","fake_2_50","1024","2","48000","-16","experiment","0","even","20070.709300009185","NA","14143.970000004629","23936.2822999974","NA","17249.662200003513","9859.897700007423","122214.91029999743","NA","NA","122718.2962000079","26099.81770000013","9905.462299997453","NA","NA","NA","NA","NA","NA","NA","NA","NA","22087.63639999961","NA","122718.43710000394","27284.204399999","122209.64370000002","NA","26084.59870000661","NA","22084.472200003802","124199.58070000575","NA","20067.656500003068","NA","NA","New experiment","16","81906.26540000085","23","1024"
"66","NA","66","3680","3680","#3d3846","psycho","NA","0","undefined","undefined","0","left","0","0","0","0","0","0","0","23","NA","0","23","0","0","NA","NA","NA","0","NA","NA","NA","NA","NA","0","NA","23","0","23","0","0","0","0","23","0","0","0","NA","Thu Oct 26 17:19:47 2023","20","The main experiment item","yes","CogPsy_Assignment_With_Instruction.osexp","C:/Users/lukas/OneDrive/Dokumente/Uni/VU/P1/Cognitive Psych/Experiment","no","mono","no","18","no","white","no","Student","yes","768","C:/Users/lukas/OneDrive/Dokumente/Uni/VU/P1/Cognitive Psych/Experiment/log_without/subject-0.csv","fake","Melodramatic Milgram","4.0.5","bottom_left","right","right","NA","right","right","NA","right","6417.59290000482","994.1758000059053","NA","1183.8924000039697","4233.392000009189","NA","6417.59290000482","NA","NA","2","fake_1_20","1024","2","48000","-16","experiment","0","even","20070.709300009185","NA","14143.970000004629","23936.2822999974","NA","17249.662200003513","9859.897700007423","124328.66579999973","NA","NA","124832.80730000115","26099.81770000013","9905.462299997453","NA","NA","NA","NA","NA","NA","NA","NA","NA","22087.63639999961","NA","124832.92420000362","27284.204399999","124323.45799999894","NA","26084.59870000661","NA","22084.472200003802","131250.95929999952","NA","20067.656500003068","NA","NA","New experiment","16","88323.85830000567","24","1024"
"64","NA","64","3571","3571","#3d3846","psycho","NA","0","undefined","undefined","0","left","0","0","0","0","0","0","0","24","NA","0","24","0","0","NA","NA","NA","0","NA","NA","NA","NA","NA","0","NA","24","0","24","0","0","0","0","24","0","0","0","NA","Thu Oct 26 17:19:47 2023","50","The main experiment item","yes","CogPsy_Assignment_With_Instruction.osexp","C:/Users/lukas/OneDrive/Dokumente/Uni/VU/P1/Cognitive Psych/Experiment","no","mono","no","18","no","white","no","Student","yes","768","C:/Users/lukas/OneDrive/Dokumente/Uni/VU/P1/Cognitive Psych/Experiment/log_without/subject-0.csv","fake","Melodramatic Milgram","4.0.5","bottom_left","right","right","NA","right","right","NA","right","966.6925000055926","994.1758000059053","NA","1183.8924000039697","4233.392000009189","NA","966.6925000055926","NA","NA","2","fake_1_50","1024","2","48000","-16","experiment","0","even","20070.709300009185","NA","14143.970000004629","23936.2822999974","NA","17249.662200003513","9859.897700007423","131358.9162999997","NA","NA","131862.5020000036","26099.81770000013","9905.462299997453","NA","NA","NA","NA","NA","NA","NA","NA","NA","22087.63639999961","NA","131862.68940000446","27284.204399999","131353.1559999974","NA","26084.59870000661","NA","22084.472200003802","132829.93190000707","NA","20067.656500003068","NA","NA","New experiment","16","89290.55080001126","25","1024"
"65","NA","65","3473","3473","#3d3846","psycho","NA","1","undefined","undefined","1","right","0","0","0","0","0","0","0","25","NA","0","25","0","0","NA","NA","NA","0","NA","NA","NA","NA","NA","0","NA","25","0","25","0","0","0","0","25","0","0","0","NA","Thu Oct 26 17:19:47 2023","50","The main experiment item","yes","CogPsy_Assignment_With_Instruction.osexp","C:/Users/lukas/OneDrive/Dokumente/Uni/VU/P1/Cognitive Psych/Experiment","no","mono","no","18","no","white","no","Student","yes","768","C:/Users/lukas/OneDrive/Dokumente/Uni/VU/P1/Cognitive Psych/Experiment/log_without/subject-0.csv","real","Melodramatic Milgram","4.0.5","photo_2","right","right","NA","right","right","NA","right","1026.9946000044001","994.1758000059053","NA","1183.8924000039697","4233.392000009189","NA","1026.9946000044001","NA","NA","2","real_50","1024","2","48000","-16","experiment","0","even","20070.709300009185","NA","14143.970000004629","23936.2822999974","NA","17249.662200003513","9859.897700007423","132949.1135999997","NA","NA","133452.72260000638","26099.81770000013","9905.462299997453","NA","NA","NA","NA","NA","NA","NA","NA","NA","22087.63639999961","NA","133453.00110000244","27284.204399999","132944.59949999873","NA","26084.59870000661","NA","22084.472200003802","134480.50580000563","NA","20067.656500003068","NA","NA","New experiment","17","90317.54540001566","26","1024"
"66","NA","66","3393","3393","#3d3846","psycho","NA","1","undefined","undefined","1","left","0","0","0","0","0","0","0","26","NA","0","26","0","0","NA","NA","NA","0","NA","NA","NA","NA","NA","0","NA","26","0","26","0","0","0","0","26","0","0","0","NA","Thu Oct 26 17:19:47 2023","50","The main experiment item","yes","CogPsy_Assignment_With_Instruction.osexp","C:/Users/lukas/OneDrive/Dokumente/Uni/VU/P1/Cognitive Psych/Experiment","no","mono","no","18","no","white","no","Student","yes","768","C:/Users/lukas/OneDrive/Dokumente/Uni/VU/P1/Cognitive Psych/Experiment/log_without/subject-0.csv","fake","Melodramatic Milgram","4.0.5","PurpleDenomination3","left","right","NA","right","right","NA","left","1304.6610000019427","994.1758000059053","NA","1183.8924000039697","4233.392000009189","NA","1304.6610000019427","NA","NA","2","fake_2_50","1024","2","48000","-16","experiment","0","even","20070.709300009185","NA","14143.970000004629","23936.2822999974","NA","17249.662200003513","9859.897700007423","134630.1400000084","NA","NA","135133.64280000678","26099.81770000013","9905.462299997453","NA","NA","NA","NA","NA","NA","NA","NA","NA","22087.63639999961","NA","135133.779900003","27284.204399999","134625.18699999782","NA","26084.59870000661","NA","22084.472200003802","136438.92149999738","NA","20067.656500003068","NA","NA","New experiment","18","91622.2064000176","27","1024"
"64","NA","64","3316","3316","#3d3846","psycho","NA","0","undefined","undefined","0","left","0","0","0","0","0","0","0","27","NA","0","27","0","0","NA","NA","NA","0","NA","NA","NA","NA","NA","0","NA","27","0","27","0","0","0","0","27","0","0","0","NA","Thu Oct 26 17:19:47 2023","20","The main experiment item","yes","CogPsy_Assignment_With_Instruction.osexp","C:/Users/lukas/OneDrive/Dokumente/Uni/VU/P1/Cognitive Psych/Experiment","no","mono","no","18","no","white","no","Student","yes","768","C:/Users/lukas/OneDrive/Dokumente/Uni/VU/P1/Cognitive Psych/Experiment/log_without/subject-0.csv","fake","Melodramatic Milgram","4.0.5","bottom_left","right","right","NA","right","right","NA","right","1235.0039000011748","994.1758000059053","NA","1183.8924000039697","4233.392000009189","NA","1235.0039000011748","NA","NA","2","fake_1_20","1024","2","48000","-16","experiment","0","even","20070.709300009185","NA","14143.970000004629","23936.2822999974","NA","17249.662200003513","9859.897700007423","136554.80189999798","NA","NA","137058.4938999964","26099.81770000013","9905.462299997453","NA","NA","NA","NA","NA","NA","NA","NA","NA","22087.63639999961","NA","137058.6661999987","27284.204399999","136549.53980000573","NA","26084.59870000661","NA","22084.472200003802","138294.21740000544","NA","20067.656500003068","NA","NA","New experiment","18","92857.21030001878","28","1024"
"65","NA","65","3241","3241","#3d3846","psycho","NA","1","undefined","undefined","1","left","0","0","0","0","0","0","0","28","NA","0","28","0","0","NA","NA","NA","0","NA","NA","NA","NA","NA","0","NA","28","0","28","0","0","0","0","28","0","0","0","NA","Thu Oct 26 17:19:47 2023","20","The main experiment item","yes","CogPsy_Assignment_With_Instruction.osexp","C:/Users/lukas/OneDrive/Dokumente/Uni/VU/P1/Cognitive Psych/Experiment","no","mono","no","18","no","white","no","Student","yes","768","C:/Users/lukas/OneDrive/Dokumente/Uni/VU/P1/Cognitive Psych/Experiment/log_without/subject-0.csv","fake","Melodramatic Milgram","4.0.5","PurpleDenomination","left","right","NA","right","right","NA","left","1137.563800002681","994.1758000059053","NA","1183.8924000039697","4233.392000009189","NA","1137.563800002681","NA","NA","2","fake_20","1024","2","48000","-16","experiment","0","even","20070.709300009185","NA","14143.970000004629","23936.2822999974","NA","17249.662200003513","9859.897700007423","138443.71550000506","NA","NA","138947.82940000005","26099.81770000013","9905.462299997453","NA","NA","NA","NA","NA","NA","NA","NA","NA","22087.63639999961","NA","138947.96800000768","27284.204399999","138438.7524000049","NA","26084.59870000661","NA","22084.472200003802","140086.07830000983","NA","20067.656500003068","NA","NA","New experiment","19","93994.77410002146","29","1024"
"63","NA","63","3159","3159","#3d3846","psycho","NA","0","undefined","undefined","0","left","0","0","0","0","0","0","0","29","NA","0","29","0","0","NA","NA","NA","0","NA","NA","NA","NA","NA","0","NA","29","0","29","0","0","0","0","29","0","0","0","NA","Thu Oct 26 17:19:47 2023","20","The main experiment item","yes","CogPsy_Assignment_With_Instruction.osexp","C:/Users/lukas/OneDrive/Dokumente/Uni/VU/P1/Cognitive Psych/Experiment","no","mono","no","18","no","white","no","Student","yes","768","C:/Users/lukas/OneDrive/Dokumente/Uni/VU/P1/Cognitive Psych/Experiment/log_without/subject-0.csv","fake","Melodramatic Milgram","4.0.5","BadInk","right","right","NA","right","right","NA","right","795.7838000002084","994.1758000059053","NA","1183.8924000039697","4233.392000009189","NA","795.7838000002084","NA","NA","2","fake_20","1024","2","48000","-16","experiment","0","even","20070.709300009185","NA","14143.970000004629","23936.2822999974","NA","17249.662200003513","9859.897700007423","140236.46220000228","NA","NA","140740.266599998","26099.81770000013","9905.462299997453","NA","NA","NA","NA","NA","NA","NA","NA","NA","22087.63639999961","NA","140740.44300000241","27284.204399999","140231.45810001006","NA","26084.59870000661","NA","22084.472200003802","141536.74429999955","NA","20067.656500003068","NA","NA","New experiment","19","94790.55790002167","30","1024"
"61","NA","61","3377","3377","#3d3846","psycho","NA","0","undefined","undefined","0","left","0","0","0","0","0","0","0","30","NA","0","30","0","0","NA","NA","NA","0","NA","NA","NA","NA","NA","0","NA","30","0","30","0","0","0","0","30","0","0","0","NA","Thu Oct 26 17:19:47 2023","20","The main experiment item","yes","CogPsy_Assignment_With_Instruction.osexp","C:/Users/lukas/OneDrive/Dokumente/Uni/VU/P1/Cognitive Psych/Experiment","no","mono","no","18","no","white","no","Student","yes","768","C:/Users/lukas/OneDrive/Dokumente/Uni/VU/P1/Cognitive Psych/Experiment/log_without/subject-0.csv","fake","Melodramatic Milgram","4.0.5","DullHologram","right","right","NA","right","right","NA","right","9913.705099999788","994.1758000059053","NA","1183.8924000039697","4233.392000009189","NA","9913.705099999788","NA","NA","2","fake_20","1024","2","48000","-16","experiment","0","even","20070.709300009185","NA","14143.970000004629","23936.2822999974","NA","17249.662200003513","9859.897700007423","141656.89440000278","NA","NA","142160.76379999868","26099.81770000013","9905.462299997453","NA","NA","NA","NA","NA","NA","NA","NA","NA","22087.63639999961","NA","142160.89729999658","27284.204399999","141652.02940000745","NA","26084.59870000661","NA","22084.472200003802","152075.41320000018","NA","20067.656500003068","NA","NA","New experiment","19","104704.26300002146","31","1024"
"62","NA","62","3298","3298","#3d3846","psycho","NA","1","undefined","undefined","1","right","0","0","0","0","0","0","0","31","NA","0","31","0","0","NA","NA","NA","0","NA","NA","NA","NA","NA","0","NA","31","0","31","0","0","0","0","31","0","0","0","NA","Thu Oct 26 17:19:47 2023","50","The main experiment item","yes","CogPsy_Assignment_With_Instruction.osexp","C:/Users/lukas/OneDrive/Dokumente/Uni/VU/P1/Cognitive Psych/Experiment","no","mono","no","18","no","white","no","Student","yes","768","C:/Users/lukas/OneDrive/Dokumente/Uni/VU/P1/Cognitive Psych/Experiment/log_without/subject-0.csv","real","Melodramatic Milgram","4.0.5","photo","right","right","NA","right","right","NA","right","836.0573999962071","994.1758000059053","NA","1183.8924000039697","4233.392000009189","NA","836.0573999962071","NA","NA","2","real_50","1024","2","48000","-16","experiment","0","even","20070.709300009185","NA","14143.970000004629","23936.2822999974","NA","17249.662200003513","9859.897700007423","152243.60590000288","NA","NA","152746.49330000102","26099.81770000013","9905.462299997453","NA","NA","NA","NA","NA","NA","NA","NA","NA","22087.63639999961","NA","152746.6196000023","27284.204399999","152238.43040000065","NA","26084.59870000661","NA","22084.472200003802","153583.22359999875","NA","20067.656500003068","NA","NA","New experiment","20","105540.32040001766","32","1024"
"63","NA","63","3256","3256","#3d3846","psycho","NA","1","undefined","undefined","1","right","0","0","0","0","0","0","0","32","NA","0","32","0","0","NA","NA","NA","0","NA","NA","NA","NA","NA","0","NA","32","0","32","0","0","0","0","32","0","0","0","NA","Thu Oct 26 17:19:47 2023","20","The main experiment item","yes","CogPsy_Assignment_With_Instruction.osexp","C:/Users/lukas/OneDrive/Dokumente/Uni/VU/P1/Cognitive Psych/Experiment","no","mono","no","18","no","white","no","Student","yes","768","C:/Users/lukas/OneDrive/Dokumente/Uni/VU/P1/Cognitive Psych/Experiment/log_without/subject-0.csv","real","Melodramatic Milgram","4.0.5","genuine","right","right","NA","right","right","NA","right","1917.4021999933757","994.1758000059053","NA","1183.8924000039697","4233.392000009189","NA","1917.4021999933757","NA","NA","2","real_20","1024","2","48000","-16","experiment","0","even","20070.709300009185","NA","14143.970000004629","23936.2822999974","NA","17249.662200003513","9859.897700007423","153689.6179000032","NA","NA","154193.53109999793","26099.81770000013","9905.462299997453","NA","NA","NA","NA","NA","NA","NA","NA","NA","22087.63639999961","NA","154193.69450000522","27284.204399999","153684.72859999747","NA","26084.59870000661","NA","22084.472200003802","156111.62209999748","NA","20067.656500003068","NA","NA","New experiment","21","107457.72260001104","33","1024"
"61","NA","61","3181","3181","#3d3846","psycho","NA","0","undefined","undefined","0","left","0","0","0","0","0","0","0","33","NA","0","33","0","0","NA","NA","NA","0","NA","NA","NA","NA","NA","0","NA","33","0","33","0","0","0","0","33","0","0","0","NA","Thu Oct 26 17:19:47 2023","20","The main experiment item","yes","CogPsy_Assignment_With_Instruction.osexp","C:/Users/lukas/OneDrive/Dokumente/Uni/VU/P1/Cognitive Psych/Experiment","no","mono","no","18","no","white","no","Student","yes","768","C:/Users/lukas/OneDrive/Dokumente/Uni/VU/P1/Cognitive Psych/Experiment/log_without/subject-0.csv","fake","Melodramatic Milgram","4.0.5","DullHologram2","right","right","NA","right","right","NA","right","720.2244000072824","994.1758000059053","NA","1183.8924000039697","4233.392000009189","NA","720.2244000072824","NA","NA","2","fake_20","1024","2","48000","-16","experiment","0","even","20070.709300009185","NA","14143.970000004629","23936.2822999974","NA","17249.662200003513","9859.897700007423","156260.5986999988","NA","NA","156764.03780000692","26099.81770000013","9905.462299997453","NA","NA","NA","NA","NA","NA","NA","NA","NA","22087.63639999961","NA","156764.13409999805","27284.204399999","156254.3880000012","NA","26084.59870000661","NA","22084.472200003802","157484.8628000036","NA","20067.656500003068","NA","NA","New experiment","21","108177.94700001832","34","1024"
"60","NA","60","3127","3127","#3d3846","psycho","NA","0","undefined","undefined","0","left","0","0","0","0","0","0","0","34","NA","0","34","0","0","NA","NA","NA","0","NA","NA","NA","NA","NA","0","NA","34","0","34","0","0","0","0","34","0","0","0","NA","Thu Oct 26 17:19:47 2023","50","The main experiment item","yes","CogPsy_Assignment_With_Instruction.osexp","C:/Users/lukas/OneDrive/Dokumente/Uni/VU/P1/Cognitive Psych/Experiment","no","mono","no","18","no","white","no","Student","yes","768","C:/Users/lukas/OneDrive/Dokumente/Uni/VU/P1/Cognitive Psych/Experiment/log_without/subject-0.csv","fake","Melodramatic Milgram","4.0.5","BadInk","right","right","NA","right","right","NA","right","1279.0536999964388","994.1758000059053","NA","1183.8924000039697","4233.392000009189","NA","1279.0536999964388","NA","NA","2","fake_2_50","1024","2","48000","-16","experiment","0","even","20070.709300009185","NA","14143.970000004629","23936.2822999974","NA","17249.662200003513","9859.897700007423","157644.29630000086","NA","NA","158147.53070000734","26099.81770000013","9905.462299997453","NA","NA","NA","NA","NA","NA","NA","NA","NA","22087.63639999961","NA","158147.6740000071","27284.204399999","157639.6073000069","NA","26084.59870000661","NA","22084.472200003802","159427.27719999675","NA","20067.656500003068","NA","NA","New experiment","21","109457.00070001476","35","1024"
"61","NA","61","3061","3061","#3d3846","psycho","NA","1","undefined","undefined","1","right","0","0","0","0","0","0","0","35","NA","0","35","0","0","NA","NA","NA","0","NA","NA","NA","NA","NA","0","NA","35","0","35","0","0","0","0","35","0","0","0","NA","Thu Oct 26 17:19:47 2023","50","The main experiment item","yes","CogPsy_Assignment_With_Instruction.osexp","C:/Users/lukas/OneDrive/Dokumente/Uni/VU/P1/Cognitive Psych/Experiment","no","mono","no","18","no","white","no","Student","yes","768","C:/Users/lukas/OneDrive/Dokumente/Uni/VU/P1/Cognitive Psych/Experiment/log_without/subject-0.csv","real","Melodramatic Milgram","4.0.5","genuine","right","right","NA","right","right","NA","right","759.57439999911","994.1758000059053","NA","1183.8924000039697","4233.392000009189","NA","759.57439999911","NA","NA","2","real_20","1024","2","48000","-16","experiment","0","even","20070.709300009185","NA","14143.970000004629","23936.2822999974","NA","17249.662200003513","9859.897700007423","159536.77620000963","NA","NA","160040.2596000058","26099.81770000013","9905.462299997453","NA","NA","NA","NA","NA","NA","NA","NA","NA","22087.63639999961","NA","160040.46370000287","27284.204399999","159532.22720000485","NA","26084.59870000661","NA","22084.472200003802","160800.60760000197","NA","20067.656500003068","NA","NA","New experiment","22","110216.57510001387","36","1024"
"59","NA","59","3037","3037","#3d3846","psycho","NA","0","undefined","undefined","0","left","0","0","0","0","0","0","0","36","NA","0","36","0","0","NA","NA","NA","0","NA","NA","NA","NA","NA","0","NA","36","0","36","0","0","0","0","36","0","0","0","NA","Thu Oct 26 17:19:47 2023","50","The main experiment item","yes","CogPsy_Assignment_With_Instruction.osexp","C:/Users/lukas/OneDrive/Dokumente/Uni/VU/P1/Cognitive Psych/Experiment","no","mono","no","18","no","white","no","Student","yes","768","C:/Users/lukas/OneDrive/Dokumente/Uni/VU/P1/Cognitive Psych/Experiment/log_without/subject-0.csv","fake","Melodramatic Milgram","4.0.5","NoNumOnThread_BlurryWatermark","right","right","NA","right","right","NA","right","2178.1008999969345","994.1758000059053","NA","1183.8924000039697","4233.392000009189","NA","2178.1008999969345","NA","NA","2","fake_2_50","1024","2","48000","-16","experiment","0","even","20070.709300009185","NA","14143.970000004629","23936.2822999974","NA","17249.662200003513","9859.897700007423","160933.2992999989","NA","NA","161438.559000002","26099.81770000013","9905.462299997453","NA","NA","NA","NA","NA","NA","NA","NA","NA","22087.63639999961","NA","161438.72020000708","27284.204399999","160927.34560000827","NA","26084.59870000661","NA","22084.472200003802","163617.37500000163","NA","20067.656500003068","NA","NA","New experiment","22","112394.6760000108","37","1024"
"60","NA","60","3002","3002","#3d3846","psycho","NA","1","undefined","undefined","1","left","0","0","0","0","0","0","0","37","NA","0","37","0","0","NA","NA","NA","0","NA","NA","NA","NA","NA","0","NA","37","0","37","0","0","0","0","37","0","0","0","NA","Thu Oct 26 17:19:47 2023","20","The main experiment item","yes","CogPsy_Assignment_With_Instruction.osexp","C:/Users/lukas/OneDrive/Dokumente/Uni/VU/P1/Cognitive Psych/Experiment","no","mono","no","18","no","white","no","Student","yes","768","C:/Users/lukas/OneDrive/Dokumente/Uni/VU/P1/Cognitive Psych/Experiment/log_without/subject-0.csv","fake","Melodramatic Milgram","4.0.5","BrownDenomination","left","right","NA","right","right","NA","left","1717.3890999983996","994.1758000059053","NA","1183.8924000039697","4233.392000009189","NA","1717.3890999983996","NA","NA","2","fake_20","1024","2","48000","-16","experiment","0","even","20070.709300009185","NA","14143.970000004629","23936.2822999974","NA","17249.662200003513","9859.897700007423","163751.2090000091","NA","NA","164254.6788000036","26099.81770000013","9905.462299997453","NA","NA","NA","NA","NA","NA","NA","NA","NA","22087.63639999961","NA","164254.8031000042","27284.204399999","163745.49810000462","NA","26084.59870000661","NA","22084.472200003802","165972.80730000057","NA","20067.656500003068","NA","NA","New experiment","23","114112.0651000092","38","1024"
"58","NA","58","3023","3023","#3d3846","psycho","NA","0","undefined","undefined","0","left","0","0","0","0","0","0","0","38","NA","0","38","0","0","NA","NA","NA","0","NA","NA","NA","NA","NA","0","NA","38","0","38","0","0","0","0","38","0","0","0","NA","Thu Oct 26 17:19:47 2023","50","The main experiment item","yes","CogPsy_Assignment_With_Instruction.osexp","C:/Users/lukas/OneDrive/Dokumente/Uni/VU/P1/Cognitive Psych/Experiment","no","mono","no","18","no","white","no","Student","yes","768","C:/Users/lukas/OneDrive/Dokumente/Uni/VU/P1/Cognitive Psych/Experiment/log_without/subject-0.csv","fake","Melodramatic Milgram","4.0.5","silver_strip","right","right","NA","right","right","NA","right","3819.220999997924","994.1758000059053","NA","1183.8924000039697","4233.392000009189","NA","3819.220999997924","NA","NA","2","fake_2_50","1024","2","48000","-16","experiment","0","even","20070.709300009185","NA","14143.970000004629","23936.2822999974","NA","17249.662200003513","9859.897700007423","166078.82700000482","NA","NA","166582.7469000069","26099.81770000013","9905.462299997453","NA","NA","NA","NA","NA","NA","NA","NA","NA","22087.63639999961","NA","166582.89040000818","27284.204399999","166074.2054000002","NA","26084.59870000661","NA","22084.472200003802","170402.78960000433","NA","20067.656500003068","NA","NA","New experiment","23","117931.28610000713","39","1024"
"60","NA","60","2966","2966","#3d3846","psycho","NA","1","undefined","undefined","1","left","0","0","0","0","0","0","0","39","NA","0","39","0","0","NA","NA","NA","0","NA","NA","NA","NA","NA","0","NA","39","0","39","0","0","0","0","39","0","0","0","NA","Thu Oct 26 17:19:47 2023","50","The main experiment item","yes","CogPsy_Assignment_With_Instruction.osexp","C:/Users/lukas/OneDrive/Dokumente/Uni/VU/P1/Cognitive Psych/Experiment","no","mono","no","18","no","white","no","Student","yes","768","C:/Users/lukas/OneDrive/Dokumente/Uni/VU/P1/Cognitive Psych/Experiment/log_without/subject-0.csv","fake","Melodramatic Milgram","4.0.5","PurpleDenomination3","left","right","NA","right","right","NA","left","738.6034000082873","994.1758000059053","NA","1183.8924000039697","4233.392000009189","NA","738.6034000082873","NA","NA","2","fake_2_50","1024","2","48000","-16","experiment","0","even","20070.709300009185","NA","14143.970000004629","23936.2822999974","NA","17249.662200003513","9859.897700007423","170523.75780000875","NA","NA","171028.11070000462","26099.81770000013","9905.462299997453","NA","NA","NA","NA","NA","NA","NA","NA","NA","22087.63639999961","NA","171028.27819999948","27284.204399999","170518.1689000019","NA","26084.59870000661","NA","22084.472200003802","171767.57570001064","NA","20067.656500003068","NA","NA","New experiment","24","118669.88950001542","40","1024"
"60","NA","60","2917","2917","#3d3846","psycho","NA","1","undefined","undefined","1","left","0","0","0","0","0","0","0","40","NA","0","40","0","0","NA","NA","NA","0","NA","NA","NA","NA","NA","0","NA","40","0","40","0","0","0","0","40","0","0","0","NA","Thu Oct 26 17:19:47 2023","50","The main experiment item","yes","CogPsy_Assignment_With_Instruction.osexp","C:/Users/lukas/OneDrive/Dokumente/Uni/VU/P1/Cognitive Psych/Experiment","no","mono","no","18","no","white","no","Student","yes","768","C:/Users/lukas/OneDrive/Dokumente/Uni/VU/P1/Cognitive Psych/Experiment/log_without/subject-0.csv","fake","Melodramatic Milgram","4.0.5","BadInk","left","right","NA","right","right","NA","left","958.0029000062495","994.1758000059053","NA","1183.8924000039697","4233.392000009189","NA","958.0029000062495","NA","NA","2","fake_2_50","1024","2","48000","-16","experiment","0","even","20070.709300009185","NA","14143.970000004629","23936.2822999974","NA","17249.662200003513","9859.897700007423","171910.54170001007","NA","NA","172414.20290000679","26099.81770000013","9905.462299997453","NA","NA","NA","NA","NA","NA","NA","NA","NA","22087.63639999961","NA","172414.3894000008","27284.204399999","171905.62930000306","NA","26084.59870000661","NA","22084.472200003802","173373.01860000298","NA","20067.656500003068","NA","NA","New experiment","25","119627.89240002166","41","1024"
"61","NA","61","2872","2872","#3d3846","psycho","NA","1","undefined","undefined","1","left","0","0","0","0","0","0","0","41","NA","0","41","0","0","NA","NA","NA","0","NA","NA","NA","NA","NA","0","NA","41","0","41","0","0","0","0","41","0","0","0","NA","Thu Oct 26 17:19:47 2023","20","The main experiment item","yes","CogPsy_Assignment_With_Instruction.osexp","C:/Users/lukas/OneDrive/Dokumente/Uni/VU/P1/Cognitive Psych/Experiment","no","mono","no","18","no","white","no","Student","yes","768","C:/Users/lukas/OneDrive/Dokumente/Uni/VU/P1/Cognitive Psych/Experiment/log_without/subject-0.csv","fake","Melodramatic Milgram","4.0.5","PurpleDenomination","left","right","NA","right","right","NA","left","1029.3825999979163","994.1758000059053","NA","1183.8924000039697","4233.392000009189","NA","1029.3825999979163","NA","NA","2","fake_20","1024","2","48000","-16","experiment","0","even","20070.709300009185","NA","14143.970000004629","23936.2822999974","NA","17249.662200003513","9859.897700007423","173494.80820000463","NA","NA","173998.54519999644","26099.81770000013","9905.462299997453","NA","NA","NA","NA","NA","NA","NA","NA","NA","22087.63639999961","NA","173998.697300005","27284.204399999","173489.99680000998","NA","26084.59870000661","NA","22084.472200003802","175028.65870000096","NA","20067.656500003068","NA","NA","New experiment","26","120657.27500001958","42","1024"
"60","NA","60","2857","2857","#3d3846","psycho","NA","0","undefined","undefined","0","left","0","0","0","0","0","0","0","42","NA","0","42","0","0","NA","NA","NA","0","NA","NA","NA","NA","NA","0","NA","42","0","42","0","0","0","0","42","0","0","0","NA","Thu Oct 26 17:19:47 2023","20","The main experiment item","yes","CogPsy_Assignment_With_Instruction.osexp","C:/Users/lukas/OneDrive/Dokumente/Uni/VU/P1/Cognitive Psych/Experiment","no","mono","no","18","no","white","no","Student","yes","768","C:/Users/lukas/OneDrive/Dokumente/Uni/VU/P1/Cognitive Psych/Experiment/log_without/subject-0.csv","fake","Melodramatic Milgram","4.0.5","BadInk2","right","right","NA","right","right","NA","right","2205.3341999999247","994.1758000059053","NA","1183.8924000039697","4233.392000009189","NA","2205.3341999999247","NA","NA","2","fake_20","1024","2","48000","-16","experiment","0","even","20070.709300009185","NA","14143.970000004629","23936.2822999974","NA","17249.662200003513","9859.897700007423","175160.58100000373","NA","NA","175664.42880000977","26099.81770000013","9905.462299997453","NA","NA","NA","NA","NA","NA","NA","NA","NA","22087.63639999961","NA","175664.55739999947","27284.204399999","175154.59869999904","NA","26084.59870000661","NA","22084.472200003802","177870.89489999926","NA","20067.656500003068","NA","NA","New experiment","26","122862.6092000195","43","1024"
"61","NA","61","2818","2818","#3d3846","psycho","NA","1","undefined","undefined","1","right","0","0","0","0","0","0","0","43","NA","0","43","0","0","NA","NA","NA","0","NA","NA","NA","NA","NA","0","NA","43","0","43","0","0","0","0","43","0","0","0","NA","Thu Oct 26 17:19:47 2023","50","The main experiment item","yes","CogPsy_Assignment_With_Instruction.osexp","C:/Users/lukas/OneDrive/Dokumente/Uni/VU/P1/Cognitive Psych/Experiment","no","mono","no","18","no","white","no","Student","yes","768","C:/Users/lukas/OneDrive/Dokumente/Uni/VU/P1/Cognitive Psych/Experiment/log_without/subject-0.csv","real","Melodramatic Milgram","4.0.5","photo_2","right","right","NA","right","right","NA","right","1155.8700000023236","994.1758000059053","NA","1183.8924000039697","4233.392000009189","NA","1155.8700000023236","NA","NA","2","real_50","1024","2","48000","-16","experiment","0","even","20070.709300009185","NA","14143.970000004629","23936.2822999974","NA","17249.662200003513","9859.897700007423","177982.70170000615","NA","NA","178486.41959999804","26099.81770000013","9905.462299997453","NA","NA","NA","NA","NA","NA","NA","NA","NA","22087.63639999961","NA","178486.56170000322","27284.204399999","177978.6555000028","NA","26084.59870000661","NA","22084.472200003802","179643.33079999778","NA","20067.656500003068","NA","NA","New experiment","27","124018.47920002183","44","1024"
"62","NA","62","2774","2774","#3d3846","psycho","NA","1","undefined","undefined","1","right","0","0","0","0","0","0","0","44","NA","0","44","0","0","NA","NA","NA","0","NA","NA","NA","NA","NA","0","NA","44","0","44","0","0","0","0","44","0","0","0","NA","Thu Oct 26 17:19:47 2023","50","The main experiment item","yes","CogPsy_Assignment_With_Instruction.osexp","C:/Users/lukas/OneDrive/Dokumente/Uni/VU/P1/Cognitive Psych/Experiment","no","mono","no","18","no","white","no","Student","yes","768","C:/Users/lukas/OneDrive/Dokumente/Uni/VU/P1/Cognitive Psych/Experiment/log_without/subject-0.csv","real","Melodramatic Milgram","4.0.5","photo_2","right","right","NA","right","right","NA","right","818.2124000013573","994.1758000059053","NA","1183.8924000039697","4233.392000009189","NA","818.2124000013573","NA","NA","2","real_50","1024","2","48000","-16","experiment","0","even","20070.709300009185","NA","14143.970000004629","23936.2822999974","NA","17249.662200003513","9859.897700007423","179747.82020000566","NA","NA","180252.34360000468","26099.81770000013","9905.462299997453","NA","NA","NA","NA","NA","NA","NA","NA","NA","22087.63639999961","NA","180252.4659000046","27284.204399999","179743.15090000164","NA","26084.59870000661","NA","22084.472200003802","181071.299800009","NA","20067.656500003068","NA","NA","New experiment","28","124836.69160002319","45","1024"
"63","NA","63","2747","2747","#3d3846","psycho","NA","1","undefined","undefined","1","left","0","0","0","0","0","0","0","45","NA","0","45","0","0","NA","NA","NA","0","NA","NA","NA","NA","NA","0","NA","45","0","45","0","0","0","0","45","0","0","0","NA","Thu Oct 26 17:19:47 2023","50","The main experiment item","yes","CogPsy_Assignment_With_Instruction.osexp","C:/Users/lukas/OneDrive/Dokumente/Uni/VU/P1/Cognitive Psych/Experiment","no","mono","no","18","no","white","no","Student","yes","768","C:/Users/lukas/OneDrive/Dokumente/Uni/VU/P1/Cognitive Psych/Experiment/log_without/subject-0.csv","fake","Melodramatic Milgram","4.0.5","PurpleDenomination2","left","right","NA","right","right","NA","left","1527.740100005758","994.1758000059053","NA","1183.8924000039697","4233.392000009189","NA","1527.740100005758","NA","NA","2","fake_2_50","1024","2","48000","-16","experiment","0","even","20070.709300009185","NA","14143.970000004629","23936.2822999974","NA","17249.662200003513","9859.897700007423","181191.26320000214","NA","NA","181695.25710000016","26099.81770000013","9905.462299997453","NA","NA","NA","NA","NA","NA","NA","NA","NA","22087.63639999961","NA","181695.44690000475","27284.204399999","181187.22400000843","NA","26084.59870000661","NA","22084.472200003802","183223.75030000694","NA","20067.656500003068","NA","NA","New experiment","29","126364.43170002894","46","1024"
"63","NA","63","2717","2717","#3d3846","psycho","NA","1","undefined","undefined","1","right","0","0","0","0","0","0","0","46","NA","0","46","0","0","NA","NA","NA","0","NA","NA","NA","NA","NA","0","NA","46","0","46","0","0","0","0","46","0","0","0","NA","Thu Oct 26 17:19:47 2023","20","The main experiment item","yes","CogPsy_Assignment_With_Instruction.osexp","C:/Users/lukas/OneDrive/Dokumente/Uni/VU/P1/Cognitive Psych/Experiment","no","mono","no","18","no","white","no","Student","yes","768","C:/Users/lukas/OneDrive/Dokumente/Uni/VU/P1/Cognitive Psych/Experiment/log_without/subject-0.csv","real","Melodramatic Milgram","4.0.5","photo","right","right","NA","right","right","NA","right","1369.4138999999268","994.1758000059053","NA","1183.8924000039697","4233.392000009189","NA","1369.4138999999268","NA","NA","2","real_20","1024","2","48000","-16","experiment","0","even","20070.709300009185","NA","14143.970000004629","23936.2822999974","NA","17249.662200003513","9859.897700007423","183365.53819999972","NA","NA","183869.2565000092","26099.81770000013","9905.462299997453","NA","NA","NA","NA","NA","NA","NA","NA","NA","22087.63639999961","NA","183869.36810000043","27284.204399999","183359.87700000987","NA","26084.59870000661","NA","22084.472200003802","185239.3907000078","NA","20067.656500003068","NA","NA","New experiment","30","127733.84560002887","47","1024"
"62","NA","62","2686","2686","#3d3846","psycho","NA","0","undefined","undefined","0","left","0","0","0","0","0","0","0","47","NA","0","47","0","0","NA","NA","NA","0","NA","NA","NA","NA","NA","0","NA","47","0","47","0","0","0","0","47","0","0","0","NA","Thu Oct 26 17:19:47 2023","20","The main experiment item","yes","CogPsy_Assignment_With_Instruction.osexp","C:/Users/lukas/OneDrive/Dokumente/Uni/VU/P1/Cognitive Psych/Experiment","no","mono","no","18","no","white","no","Student","yes","768","C:/Users/lukas/OneDrive/Dokumente/Uni/VU/P1/Cognitive Psych/Experiment/log_without/subject-0.csv","fake","Melodramatic Milgram","4.0.5","silver_strip","right","right","NA","right","right","NA","right","1214.254600010463","994.1758000059053","NA","1183.8924000039697","4233.392000009189","NA","1214.254600010463","NA","NA","2","fake_2_20","1024","2","48000","-16","experiment","0","even","20070.709300009185","NA","14143.970000004629","23936.2822999974","NA","17249.662200003513","9859.897700007423","185349.94339999685","NA","NA","185855.4210000002","26099.81770000013","9905.462299997453","NA","NA","NA","NA","NA","NA","NA","NA","NA","22087.63639999961","NA","185855.50879999937","27284.204399999","185344.5847999974","NA","26084.59870000661","NA","22084.472200003802","187070.39449999866","NA","20067.656500003068","NA","NA","New experiment","30","128948.10020003933","48","1024"
"63","NA","63","2654","2654","#3d3846","psycho","NA","1","undefined","undefined","1","left","0","0","0","0","0","0","0","48","NA","0","48","0","0","NA","NA","NA","0","NA","NA","NA","NA","NA","0","NA","48","0","48","0","0","0","0","48","0","0","0","NA","Thu Oct 26 17:19:47 2023","50","The main experiment item","yes","CogPsy_Assignment_With_Instruction.osexp","C:/Users/lukas/OneDrive/Dokumente/Uni/VU/P1/Cognitive Psych/Experiment","no","mono","no","18","no","white","no","Student","yes","768","C:/Users/lukas/OneDrive/Dokumente/Uni/VU/P1/Cognitive Psych/Experiment/log_without/subject-0.csv","fake","Melodramatic Milgram","4.0.5","PurpleDenomination","left","right","NA","right","right","NA","left","1125.6851000071038","994.1758000059053","NA","1183.8924000039697","4233.392000009189","NA","1125.6851000071038","NA","NA","2","fake_2_50","1024","2","48000","-16","experiment","0","even","20070.709300009185","NA","14143.970000004629","23936.2822999974","NA","17249.662200003513","9859.897700007423","187191.57390001055","NA","NA","187695.43740000518","26099.81770000013","9905.462299997453","NA","NA","NA","NA","NA","NA","NA","NA","NA","22087.63639999961","NA","187695.59319999826","27284.204399999","187187.5136000017","NA","26084.59870000661","NA","22084.472200003802","188821.79230000474","NA","20067.656500003068","NA","NA","New experiment","31","130073.78530004644","49","1024"
"62","NA","62","2623","2623","#3d3846","psycho","NA","0","undefined","undefined","0","left","0","0","0","0","0","0","0","49","NA","0","49","0","0","NA","NA","NA","0","NA","NA","NA","NA","NA","0","NA","49","0","49","0","0","0","0","49","0","0","0","NA","Thu Oct 26 17:19:47 2023","20","The main experiment item","yes","CogPsy_Assignment_With_Instruction.osexp","C:/Users/lukas/OneDrive/Dokumente/Uni/VU/P1/Cognitive Psych/Experiment","no","mono","no","18","no","white","no","Student","yes","768","C:/Users/lukas/OneDrive/Dokumente/Uni/VU/P1/Cognitive Psych/Experiment/log_without/subject-0.csv","fake","Melodramatic Milgram","4.0.5","DullHologram2","right","right","NA","right","right","NA","right","1096.925600009854","994.1758000059053","NA","1183.8924000039697","4233.392000009189","NA","1096.925600009854","NA","NA","2","fake_20","1024","2","48000","-16","experiment","0","even","20070.709300009185","NA","14143.970000004629","23936.2822999974","NA","17249.662200003513","9859.897700007423","188944.71930000873","NA","NA","189448.6240999977","26099.81770000013","9905.462299997453","NA","NA","NA","NA","NA","NA","NA","NA","NA","22087.63639999961","NA","189448.71959999728","27284.204399999","188940.28049999906","NA","26084.59870000661","NA","22084.472200003802","190546.29640000348","NA","20067.656500003068","NA","NA","New experiment","31","131170.7109000563","50","1024"
"62","NA","62","2597","2597","#3d3846","psycho","NA","1","undefined","undefined","1","right","0","0","0","0","0","0","0","50","NA","0","50","0","0","NA","NA","NA","0","NA","NA","NA","NA","NA","0","NA","50","0","50","0","0","0","0","50","0","0","0","NA","Thu Oct 26 17:19:47 2023","50","The main experiment item","yes","CogPsy_Assignment_With_Instruction.osexp","C:/Users/lukas/OneDrive/Dokumente/Uni/VU/P1/Cognitive Psych/Experiment","no","mono","no","18","no","white","no","Student","yes","768","C:/Users/lukas/OneDrive/Dokumente/Uni/VU/P1/Cognitive Psych/Experiment/log_without/subject-0.csv","real","Melodramatic Milgram","4.0.5","genuine","right","right","NA","right","right","NA","right","1287.945000003674","994.1758000059053","NA","1183.8924000039697","4233.392000009189","NA","1287.945000003674","NA","NA","2","real_50","1024","2","48000","-16","experiment","0","even","20070.709300009185","NA","14143.970000004629","23936.2822999974","NA","17249.662200003513","9859.897700007423","190644.15629999712","NA","NA","191148.1080000085","26099.81770000013","9905.462299997453","NA","NA","NA","NA","NA","NA","NA","NA","NA","22087.63639999961","NA","191148.2471000054","27284.204399999","190639.44410000113","NA","26084.59870000661","NA","22084.472200003802","192436.8950000062","NA","20067.656500003068","NA","NA","New experiment","32","132458.65590005997","51","1024"
"63","NA","63","2565","2565","#3d3846","psycho","NA","1","undefined","undefined","1","left","0","0","0","0","0","0","0","51","NA","0","51","0","0","NA","NA","NA","0","NA","NA","NA","NA","NA","0","NA","51","0","51","0","0","0","0","51","0","0","0","NA","Thu Oct 26 17:19:47 2023","50","The main experiment item","yes","CogPsy_Assignment_With_Instruction.osexp","C:/Users/lukas/OneDrive/Dokumente/Uni/VU/P1/Cognitive Psych/Experiment","no","mono","no","18","no","white","no","Student","yes","768","C:/Users/lukas/OneDrive/Dokumente/Uni/VU/P1/Cognitive Psych/Experiment/log_without/subject-0.csv","fake","Melodramatic Milgram","4.0.5","PurpleDenomination","left","right","NA","right","right","NA","left","939.9281999940285","994.1758000059053","NA","1183.8924000039697","4233.392000009189","NA","939.9281999940285","NA","NA","2","fake_2_50","1024","2","48000","-16","experiment","0","even","20070.709300009185","NA","14143.970000004629","23936.2822999974","NA","17249.662200003513","9859.897700007423","192542.2208000091","NA","NA","193045.92669999693","26099.81770000013","9905.462299997453","NA","NA","NA","NA","NA","NA","NA","NA","NA","22087.63639999961","NA","193046.0211000027","27284.204399999","192538.09889999684","NA","26084.59870000661","NA","22084.472200003802","193986.57850000018","NA","20067.656500003068","NA","NA","New experiment","33","133398.584100054","52","1024"
"64","NA","64","2533","2533","#3d3846","psycho","NA","1","undefined","undefined","1","right","0","0","0","0","0","0","0","52","NA","0","52","0","0","NA","NA","NA","0","NA","NA","NA","NA","NA","0","NA","52","0","52","0","0","0","0","52","0","0","0","NA","Thu Oct 26 17:19:47 2023","50","The main experiment item","yes","CogPsy_Assignment_With_Instruction.osexp","C:/Users/lukas/OneDrive/Dokumente/Uni/VU/P1/Cognitive Psych/Experiment","no","mono","no","18","no","white","no","Student","yes","768","C:/Users/lukas/OneDrive/Dokumente/Uni/VU/P1/Cognitive Psych/Experiment/log_without/subject-0.csv","real","Melodramatic Milgram","4.0.5","photo","right","right","NA","right","right","NA","right","867.1064000081969","994.1758000059053","NA","1183.8924000039697","4233.392000009189","NA","867.1064000081969","NA","NA","2","real_50","1024","2","48000","-16","experiment","0","even","20070.709300009185","NA","14143.970000004629","23936.2822999974","NA","17249.662200003513","9859.897700007423","194112.98360000364","NA","NA","194616.3904999994","26099.81770000013","9905.462299997453","NA","NA","NA","NA","NA","NA","NA","NA","NA","22087.63639999961","NA","194616.53780000051","27284.204399999","194106.95120001037","NA","26084.59870000661","NA","22084.472200003802","195484.28460001014","NA","20067.656500003068","NA","NA","New experiment","34","134265.6905000622","53","1024"
"62","NA","62","2528","2528","#3d3846","psycho","NA","0","undefined","undefined","0","left","0","0","0","0","0","0","0","53","NA","0","53","0","0","NA","NA","NA","0","NA","NA","NA","NA","NA","0","NA","53","0","53","0","0","0","0","53","0","0","0","NA","Thu Oct 26 17:19:47 2023","50","The main experiment item","yes","CogPsy_Assignment_With_Instruction.osexp","C:/Users/lukas/OneDrive/Dokumente/Uni/VU/P1/Cognitive Psych/Experiment","no","mono","no","18","no","white","no","Student","yes","768","C:/Users/lukas/OneDrive/Dokumente/Uni/VU/P1/Cognitive Psych/Experiment/log_without/subject-0.csv","fake","Melodramatic Milgram","4.0.5","NoNumOnThread_BlurryWatermark","right","right","NA","right","right","NA","right","2278.8572999997996","994.1758000059053","NA","1183.8924000039697","4233.392000009189","NA","2278.8572999997996","NA","NA","2","fake_2_50","1024","2","48000","-16","experiment","0","even","20070.709300009185","NA","14143.970000004629","23936.2822999974","NA","17249.662200003513","9859.897700007423","195608.97050000494","NA","NA","196113.1297999964","26099.81770000013","9905.462299997453","NA","NA","NA","NA","NA","NA","NA","NA","NA","22087.63639999961","NA","196113.30440000165","27284.204399999","195602.6627000101","NA","26084.59870000661","NA","22084.472200003802","198392.8547999967","NA","20067.656500003068","NA","NA","New experiment","34","136544.547800062","54","1024"
"62","NA","62","2528","2528","#3d3846","psycho","NA","0","undefined","undefined","0","left","0","0","0","0","0","0","0","53","NA","0","53","0","0","NA","NA","NA","0","NA","NA","NA","NA","NA","0","NA","53","0","53","0","0","0","0","53","0","0","0","NA","Thu Oct 26 17:19:47 2023","50","The main experiment item","yes","CogPsy_Assignment_With_Instruction.osexp","C:/Users/lukas/OneDrive/Dokumente/Uni/VU/P1/Cognitive Psych/Experiment","no","mono","no","18","no","white","no","color","yes","768","C:/Users/lukas/OneDrive/Dokumente/Uni/VU/P1/Cognitive Psych/Experiment/log_without/subject-0.csv","fake","Melodramatic Milgram","4.0.5","NoNumOnThread_BlurryWatermark","color","right","NA","right","right","NA","right","2278.8572999997996","994.1758000059053","NA","1183.8924000039697","4233.392000009189","NA","2278.8572999997996","NA","NA","2","fake_2_50","1024","2","48000","-16","experiment","0","even","20070.709300009185","NA","14143.970000004629","23936.2822999974","NA","17249.662200003513","9859.897700007423","195608.97050000494","NA","NA","196113.1297999964","26099.81770000013","9905.462299997453","NA","NA","NA","207872.08190000092","NA","NA","NA","NA","NA","22087.63639999961","NA","196113.30440000165","27284.204399999","195602.6627000101","NA","26084.59870000661","198449.2842000036","22084.472200003802","198392.8547999967","NA","20067.656500003068","NA","NA","New experiment","34","136544.547800062","54","1024"
"62","NA","62","2528","2528","#3d3846","psycho","NA","0","undefined","undefined","0","left","0","0","0","0","0","0","0","53","NA","0","53","0","0","NA","NA","NA","0","NA","NA","NA","NA","NA","0","NA","53","0","53","0","0","0","0","53","0","0","0","NA","Thu Oct 26 17:19:47 2023","50","The main experiment item","yes","CogPsy_Assignment_With_Instruction.osexp","C:/Users/lukas/OneDrive/Dokumente/Uni/VU/P1/Cognitive Psych/Experiment","no","mono","no","18","no","white","no","Ok","yes","768","C:/Users/lukas/OneDrive/Dokumente/Uni/VU/P1/Cognitive Psych/Experiment/log_without/subject-0.csv","fake","Melodramatic Milgram","4.0.5","NoNumOnThread_BlurryWatermark","Colors of text","right","NA","right","right","NA","right","2278.8572999997996","994.1758000059053","NA","1183.8924000039697","4233.392000009189","NA","2278.8572999997996","NA","NA","2","fake_2_50","1024","2","48000","-16","experiment","0","even","20070.709300009185","NA","14143.970000004629","23936.2822999974","NA","17249.662200003513","9859.897700007423","195608.97050000494","NA","NA","196113.1297999964","26099.81770000013","9905.462299997453","NA","NA","NA","207872.08190000092","NA","NA","NA","NA","NA","22087.63639999961","NA","196113.30440000165","27284.204399999","195602.6627000101","NA","26084.59870000661","198449.2842000036","22084.472200003802","198392.8547999967","NA","20067.656500003068","220726.9443999976","NA","New experiment","34","136544.547800062","54","1024"
