acc,accept_status,accuracy,average_response_time,avg_rt,background,canvas_backend,checkbox_status,correct,correct_consent_sketchpad,correct_instruction_sketchpad,correct_new_keyboard_response,correct_response,count_age_form,count_checkbox_security_form,count_consent_sketchpad,count_country_logger,count_eurozone_form,count_eurozone_logger,count_experiment,count_fixation_dots,count_getting_started,count_goodbye_sketchpad,count_images_sketchpad,count_information_display_sketchpad,count_instruction_sketchpad,count_new_1_form_base,count_new_1_form_text_input,count_new_1_sketchpad,count_new_2_logger,count_new_4_form_multiple_choice,count_new_form_base,count_new_form_consent,count_new_form_multiple_choice,count_new_form_text_display,count_new_form_text_input,count_new_inline_script,count_new_keyboard_response,count_new_loop,count_new_sequence,count_occupation_form,count_occupation_logger,count_open_security_input_form,count_personal_data_logger,count_response_logger,count_schooling_level_form,count_schooling_logger,count_security_feature_logger,count_welcome,datetime,denomination,description,disable_garbage_collection,experiment_file,experiment_path,font_bold,font_family,font_italic,font_size,font_underline,foreground,form_clicks,form_response,fullscreen,height,logfile,note_type,opensesame_codename,opensesame_version,reason,response,response_consent_sketchpad,response_goodbye_sketchpad,response_information_display_sketchpad,response_instruction_sketchpad,response_new_1_sketchpad,response_new_keyboard_response,response_time,response_time_consent_sketchpad,response_time_goodbye_sketchpad,response_time_information_display_sketchpad,response_time_instruction_sketchpad,response_time_new_1_sketchpad,response_time_new_keyboard_response,response_time_welcome,response_welcome,round_decimals,show,sound_buf_size,sound_channels,sound_freq,sound_sample_size,start,subject_nr,subject_parity,time_age_form,time_checkbox_security_form,time_consent_sketchpad,time_country_logger,time_eurozone_form,time_eurozone_logger,time_experiment,time_fixation_dots,time_getting_started,time_goodbye_sketchpad,time_images_sketchpad,time_information_display_sketchpad,time_instruction_sketchpad,time_new_1_form_base,time_new_1_form_text_input,time_new_1_sketchpad,time_new_2_logger,time_new_4_form_multiple_choice,time_new_form_base,time_new_form_consent,time_new_form_multiple_choice,time_new_form_text_display,time_new_form_text_input,time_new_inline_script,time_new_keyboard_response,time_new_loop,time_new_sequence,time_occupation_form,time_occupation_logger,time_open_security_input_form,time_personal_data_logger,time_response_logger,time_schooling_level_form,time_schooling_logger,time_security_feature_logger,time_welcome,title,total_correct,total_response_time,total_responses,width
undefined,NA,undefined,undefined,undefined,#3d3846,psycho,NA,undefined,undefined,undefined,NA,NA,0,0,0,0,0,0,0,NA,NA,0,NA,0,0,NA,NA,NA,0,NA,NA,NA,NA,NA,0,NA,NA,0,NA,0,0,0,0,NA,0,0,0,NA,Fri Oct 27 18:34:39 2023,NA,The main experiment item,yes,CogPsy_Assignment_With_Instruction.osexp,C:/Users/lukas/OneDrive/Dokumente/Uni/VU/P1/Cognitive Psych/Experiment,no,mono,no,18,no,white,no,No,yes,768,C:/Users/lukas/OneDrive/Dokumente/Uni/VU/P1/Cognitive Psych/Experiment/log_without/subject-1.csv,NA,Melodramatic Milgram,4.0.5,NA,No,return,NA,NA,return,NA,NA,3482.3355,3482.3355,NA,NA,19551.3157,NA,NA,NA,NA,2,NA,1024,2,48000,-16,experiment,1,odd,NA,NA,37826.4876,NA,NA,46724.1526,18223.9355,NA,NA,NA,NA,NA,18270.7707,NA,NA,NA,NA,NA,NA,NA,NA,NA,NA,NA,NA,NA,NA,NA,NA,NA,NA,NA,NA,NA,NA,NA,New experiment,0,0,0,1024
undefined,NA,undefined,undefined,undefined,#3d3846,psycho,NA,undefined,undefined,undefined,NA,NA,0,0,0,0,0,0,0,NA,NA,0,NA,0,0,NA,NA,NA,0,NA,NA,NA,NA,NA,0,NA,NA,0,NA,0,0,0,0,NA,0,0,0,NA,Fri Oct 27 18:34:39 2023,NA,The main experiment item,yes,CogPsy_Assignment_With_Instruction.osexp,C:/Users/lukas/OneDrive/Dokumente/Uni/VU/P1/Cognitive Psych/Experiment,no,mono,no,18,no,white,no,Masters,yes,768,C:/Users/lukas/OneDrive/Dokumente/Uni/VU/P1/Cognitive Psych/Experiment/log_without/subject-1.csv,NA,Melodramatic Milgram,4.0.5,NA,Masters,return,NA,NA,return,NA,NA,3482.3355,3482.3355,NA,NA,19551.3157,NA,NA,NA,NA,2,NA,1024,2,48000,-16,experiment,1,odd,NA,NA,37826.4876,NA,NA,46724.1526,18223.9355,NA,NA,NA,NA,NA,18270.7707,NA,NA,NA,NA,NA,NA,NA,NA,NA,NA,NA,NA,NA,NA,NA,NA,NA,NA,NA,NA,50088.4681,NA,NA,New experiment,0,0,0,1024
undefined,NA,undefined,undefined,undefined,#3d3846,psycho,NA,undefined,undefined,undefined,NA,NA,0,0,0,0,0,0,0,NA,NA,0,NA,0,0,NA,NA,NA,0,NA,NA,NA,NA,NA,0,NA,NA,0,NA,0,0,0,0,NA,0,0,0,NA,Fri Oct 27 18:34:39 2023,NA,The main experiment item,yes,CogPsy_Assignment_With_Instruction.osexp,C:/Users/lukas/OneDrive/Dokumente/Uni/VU/P1/Cognitive Psych/Experiment,no,mono,no,18,no,white,no,23,yes,768,C:/Users/lukas/OneDrive/Dokumente/Uni/VU/P1/Cognitive Psych/Experiment/log_without/subject-1.csv,NA,Melodramatic Milgram,4.0.5,NA,23,return,NA,NA,return,NA,NA,3482.3355,3482.3355,NA,NA,19551.3157,NA,NA,NA,NA,2,NA,1024,2,48000,-16,experiment,1,odd,50091.348,NA,37826.4876,NA,NA,46724.1526,18223.9355,NA,NA,NA,NA,NA,18270.7707,NA,NA,NA,NA,NA,NA,NA,NA,NA,NA,NA,NA,NA,NA,NA,NA,NA,54913.4506,NA,NA,50088.4681,NA,NA,New experiment,0,0,0,1024
undefined,NA,undefined,undefined,undefined,#3d3846,psycho,NA,undefined,undefined,undefined,NA,NA,0,0,0,0,0,0,0,NA,NA,0,NA,0,0,NA,NA,NA,0,NA,NA,NA,NA,NA,0,NA,NA,0,NA,0,0,0,0,NA,0,0,0,NA,Fri Oct 27 18:34:39 2023,NA,The main experiment item,yes,CogPsy_Assignment_With_Instruction.osexp,C:/Users/lukas/OneDrive/Dokumente/Uni/VU/P1/Cognitive Psych/Experiment,no,mono,no,18,no,white,no,Swedish,yes,768,C:/Users/lukas/OneDrive/Dokumente/Uni/VU/P1/Cognitive Psych/Experiment/log_without/subject-1.csv,NA,Melodramatic Milgram,4.0.5,NA,Swedish,return,NA,NA,return,NA,NA,3482.3355,3482.3355,NA,NA,19551.3157,NA,NA,NA,NA,2,NA,1024,2,48000,-16,experiment,1,odd,50091.348,NA,37826.4876,58163.5326,NA,46724.1526,18223.9355,NA,NA,NA,NA,NA,18270.7707,NA,NA,NA,NA,NA,NA,NA,NA,NA,54916.5712,NA,NA,NA,NA,NA,NA,NA,54913.4506,NA,NA,50088.4681,NA,NA,New experiment,0,0,0,1024
undefined,NA,undefined,undefined,undefined,#3d3846,psycho,NA,undefined,undefined,undefined,NA,NA,0,0,0,0,0,0,0,NA,NA,0,NA,0,0,NA,NA,NA,0,NA,NA,NA,NA,NA,0,NA,NA,0,NA,0,0,0,0,NA,0,0,0,NA,Fri Oct 27 18:34:39 2023,NA,The main experiment item,yes,CogPsy_Assignment_With_Instruction.osexp,C:/Users/lukas/OneDrive/Dokumente/Uni/VU/P1/Cognitive Psych/Experiment,no,mono,no,18,no,white,no,Professional and Technical Occupations,yes,768,C:/Users/lukas/OneDrive/Dokumente/Uni/VU/P1/Cognitive Psych/Experiment/log_without/subject-1.csv,NA,Melodramatic Milgram,4.0.5,NA,Professional and Technical Occupations,return,NA,NA,return,NA,NA,3482.3355,3482.3355,NA,NA,19551.3157,NA,NA,NA,NA,2,NA,1024,2,48000,-16,experiment,1,odd,50091.348,NA,37826.4876,58163.5326,NA,46724.1526,18223.9355,NA,NA,NA,NA,NA,18270.7707,NA,NA,NA,NA,NA,NA,NA,NA,NA,54916.5712,NA,NA,NA,NA,NA,86414.6672,NA,54913.4506,NA,NA,50088.4681,NA,NA,New experiment,0,0,0,1024
100,NA,100,9278,9278,#3d3846,psycho,NA,1,undefined,undefined,1,right,0,0,0,0,0,0,0,0,NA,0,0,0,0,NA,NA,NA,0,NA,NA,NA,NA,NA,0,NA,0,0,0,0,0,0,0,0,0,0,0,NA,Fri Oct 27 18:34:39 2023,20,The main experiment item,yes,CogPsy_Assignment_With_Instruction.osexp,C:/Users/lukas/OneDrive/Dokumente/Uni/VU/P1/Cognitive Psych/Experiment,no,mono,no,18,no,white,no,Professional and Technical Occupations,yes,768,C:/Users/lukas/OneDrive/Dokumente/Uni/VU/P1/Cognitive Psych/Experiment/log_without/subject-1.csv,real,Melodramatic Milgram,4.0.5,photo,right,return,NA,return,return,NA,right,9278.1564,3482.3355,NA,4295.5865,19551.3157,NA,9278.1564,NA,NA,2,real_20,1024,2,48000,-16,experiment,1,odd,50091.348,NA,37826.4876,58163.5326,NA,46724.1526,18223.9355,90895.0198,NA,NA,91398.6569,86430.715,18270.7707,NA,NA,NA,NA,NA,NA,NA,NA,NA,54916.5712,NA,91398.7797,90726.7768,90888.6057,NA,86414.6672,NA,54913.4506,100677.3707,NA,50088.4681,NA,NA,New experiment,1,9278.1564,1,1024
50,NA,50,7234,7234,#3d3846,psycho,NA,0,undefined,undefined,0,right,0,0,0,0,0,0,0,1,NA,0,1,0,0,NA,NA,NA,0,NA,NA,NA,NA,NA,0,NA,1,0,1,0,0,0,0,1,0,0,0,NA,Fri Oct 27 18:34:39 2023,50,The main experiment item,yes,CogPsy_Assignment_With_Instruction.osexp,C:/Users/lukas/OneDrive/Dokumente/Uni/VU/P1/Cognitive Psych/Experiment,no,mono,no,18,no,white,no,Professional and Technical Occupations,yes,768,C:/Users/lukas/OneDrive/Dokumente/Uni/VU/P1/Cognitive Psych/Experiment/log_without/subject-1.csv,real,Melodramatic Milgram,4.0.5,photo,left,return,NA,return,return,NA,left,5191.7875,3482.3355,NA,4295.5865,19551.3157,NA,5191.7875,NA,NA,2,real_50,1024,2,48000,-16,experiment,1,odd,50091.348,NA,37826.4876,58163.5326,NA,46724.1526,18223.9355,101266.1141,NA,NA,101770.5332,86430.715,18270.7707,NA,NA,NA,NA,NA,NA,NA,NA,NA,54916.5712,NA,101770.6529,90726.7768,101260.6274,NA,86414.6672,NA,54913.4506,106962.9146,NA,50088.4681,NA,NA,New experiment,1,14469.9439,2,1024
66,NA,66,5872,5872,#3d3846,psycho,NA,1,undefined,undefined,1,right,0,0,0,0,0,0,0,2,NA,0,2,0,0,NA,NA,NA,0,NA,NA,NA,NA,NA,0,NA,2,0,2,0,0,0,0,2,0,0,0,NA,Fri Oct 27 18:34:39 2023,20,The main experiment item,yes,CogPsy_Assignment_With_Instruction.osexp,C:/Users/lukas/OneDrive/Dokumente/Uni/VU/P1/Cognitive Psych/Experiment,no,mono,no,18,no,white,no,Professional and Technical Occupations,yes,768,C:/Users/lukas/OneDrive/Dokumente/Uni/VU/P1/Cognitive Psych/Experiment/log_without/subject-1.csv,real,Melodramatic Milgram,4.0.5,photo,right,return,NA,return,return,NA,right,3146.8791,3482.3355,NA,4295.5865,19551.3157,NA,3146.8791,NA,NA,2,real_20,1024,2,48000,-16,experiment,1,odd,50091.348,NA,37826.4876,58163.5326,NA,46724.1526,18223.9355,107099.1778,NA,NA,107603.5645,86430.715,18270.7707,NA,NA,NA,NA,NA,NA,NA,NA,NA,54916.5712,NA,107603.7707,90726.7768,107093.821,NA,86414.6672,NA,54913.4506,110751.0486,NA,50088.4681,NA,NA,New experiment,2,17616.823,3,1024
75,NA,75,4904,4904,#3d3846,psycho,NA,1,undefined,undefined,1,left,0,0,0,0,0,0,0,3,NA,0,3,0,0,NA,NA,NA,0,NA,NA,NA,NA,NA,0,NA,3,0,3,0,0,0,0,3,0,0,0,NA,Fri Oct 27 18:34:39 2023,20,The main experiment item,yes,CogPsy_Assignment_With_Instruction.osexp,C:/Users/lukas/OneDrive/Dokumente/Uni/VU/P1/Cognitive Psych/Experiment,no,mono,no,18,no,white,no,Professional and Technical Occupations,yes,768,C:/Users/lukas/OneDrive/Dokumente/Uni/VU/P1/Cognitive Psych/Experiment/log_without/subject-1.csv,fake,Melodramatic Milgram,4.0.5,PurpleDenomination,left,return,NA,return,return,NA,left,2003.0566,3482.3355,NA,4295.5865,19551.3157,NA,2003.0566,NA,NA,2,fake_20,1024,2,48000,-16,experiment,1,odd,50091.348,NA,37826.4876,58163.5326,NA,46724.1526,18223.9355,110884.8466,NA,NA,111388.3059,86430.715,18270.7707,NA,NA,NA,NA,NA,NA,NA,NA,NA,54916.5712,NA,111388.4151,90726.7768,110880.3703,NA,86414.6672,NA,54913.4506,113391.927,NA,50088.4681,NA,NA,New experiment,3,19619.8796,4,1024
60,NA,60,4180,4180,#3d3846,psycho,NA,0,undefined,undefined,0,right,0,0,0,0,0,0,0,4,NA,0,4,0,0,NA,NA,NA,0,NA,NA,NA,NA,NA,0,NA,4,0,4,0,0,0,0,4,0,0,0,NA,Fri Oct 27 18:34:39 2023,20,The main experiment item,yes,CogPsy_Assignment_With_Instruction.osexp,C:/Users/lukas/OneDrive/Dokumente/Uni/VU/P1/Cognitive Psych/Experiment,no,mono,no,18,no,white,no,Professional and Technical Occupations,yes,768,C:/Users/lukas/OneDrive/Dokumente/Uni/VU/P1/Cognitive Psych/Experiment/log_without/subject-1.csv,real,Melodramatic Milgram,4.0.5,genuine,left,return,NA,return,return,NA,left,1284.2489,3482.3355,NA,4295.5865,19551.3157,NA,1284.2489,NA,NA,2,real_20,1024,2,48000,-16,experiment,1,odd,50091.348,NA,37826.4876,58163.5326,NA,46724.1526,18223.9355,113509.4744,NA,NA,114013.261,86430.715,18270.7707,NA,NA,NA,NA,NA,NA,NA,NA,NA,54916.5712,NA,114013.3862,90726.7768,113503.3343,NA,86414.6672,NA,54913.4506,115298.0804,NA,50088.4681,NA,NA,New experiment,3,20904.1285,5,1024
50,NA,50,4804,4804,#3d3846,psycho,NA,0,undefined,undefined,0,right,0,0,0,0,0,0,0,5,NA,0,5,0,0,NA,NA,NA,0,NA,NA,NA,NA,NA,0,NA,5,0,5,0,0,0,0,5,0,0,0,NA,Fri Oct 27 18:34:39 2023,50,The main experiment item,yes,CogPsy_Assignment_With_Instruction.osexp,C:/Users/lukas/OneDrive/Dokumente/Uni/VU/P1/Cognitive Psych/Experiment,no,mono,no,18,no,white,no,Professional and Technical Occupations,yes,768,C:/Users/lukas/OneDrive/Dokumente/Uni/VU/P1/Cognitive Psych/Experiment/log_without/subject-1.csv,real,Melodramatic Milgram,4.0.5,photo,left,return,NA,return,return,NA,left,7922.349,3482.3355,NA,4295.5865,19551.3157,NA,7922.349,NA,NA,2,real_50,1024,2,48000,-16,experiment,1,odd,50091.348,NA,37826.4876,58163.5326,NA,46724.1526,18223.9355,115411.4982,NA,NA,115918.5812,86430.715,18270.7707,NA,NA,NA,NA,NA,NA,NA,NA,NA,54916.5712,NA,115918.6755,90726.7768,115406.9859,NA,86414.6672,NA,54913.4506,123841.482,NA,50088.4681,NA,NA,New experiment,3,28826.4775,6,1024
42,NA,42,4604,4604,#3d3846,psycho,NA,0,undefined,undefined,0,right,0,0,0,0,0,0,0,6,NA,0,6,0,0,NA,NA,NA,0,NA,NA,NA,NA,NA,0,NA,6,0,6,0,0,0,0,6,0,0,0,NA,Fri Oct 27 18:34:39 2023,50,The main experiment item,yes,CogPsy_Assignment_With_Instruction.osexp,C:/Users/lukas/OneDrive/Dokumente/Uni/VU/P1/Cognitive Psych/Experiment,no,mono,no,18,no,white,no,Professional and Technical Occupations,yes,768,C:/Users/lukas/OneDrive/Dokumente/Uni/VU/P1/Cognitive Psych/Experiment/log_without/subject-1.csv,real,Melodramatic Milgram,4.0.5,genuine,left,return,NA,return,return,NA,left,3405.0474,3482.3355,NA,4295.5865,19551.3157,NA,3405.0474,NA,NA,2,real_20,1024,2,48000,-16,experiment,1,odd,50091.348,NA,37826.4876,58163.5326,NA,46724.1526,18223.9355,123979.0518,NA,NA,124483.81,86430.715,18270.7707,NA,NA,NA,NA,NA,NA,NA,NA,NA,54916.5712,NA,124483.9572,90726.7768,123974.5522,NA,86414.6672,NA,54913.4506,127889.4215,NA,50088.4681,NA,NA,New experiment,3,32231.5249,7,1024
50,NA,50,4307,4307,#3d3846,psycho,NA,1,undefined,undefined,1,right,0,0,0,0,0,0,0,7,NA,0,7,0,0,NA,NA,NA,0,NA,NA,NA,NA,NA,0,NA,7,0,7,0,0,0,0,7,0,0,0,NA,Fri Oct 27 18:34:39 2023,50,The main experiment item,yes,CogPsy_Assignment_With_Instruction.osexp,C:/Users/lukas/OneDrive/Dokumente/Uni/VU/P1/Cognitive Psych/Experiment,no,mono,no,18,no,white,no,Professional and Technical Occupations,yes,768,C:/Users/lukas/OneDrive/Dokumente/Uni/VU/P1/Cognitive Psych/Experiment/log_without/subject-1.csv,real,Melodramatic Milgram,4.0.5,photo_2,right,return,NA,return,return,NA,right,2229.8314,3482.3355,NA,4295.5865,19551.3157,NA,2229.8314,NA,NA,2,real_50,1024,2,48000,-16,experiment,1,odd,50091.348,NA,37826.4876,58163.5326,NA,46724.1526,18223.9355,128014.1245,NA,NA,128518.8045,86430.715,18270.7707,NA,NA,NA,NA,NA,NA,NA,NA,NA,54916.5712,NA,128518.9768,90726.7768,128009.7119,NA,86414.6672,NA,54913.4506,130749.5068,NA,50088.4681,NA,NA,New experiment,4,34461.3563,8,1024
55,NA,55,3915,3915,#3d3846,psycho,NA,1,undefined,undefined,1,left,0,0,0,0,0,0,0,8,NA,0,8,0,0,NA,NA,NA,0,NA,NA,NA,NA,NA,0,NA,8,0,8,0,0,0,0,8,0,0,0,NA,Fri Oct 27 18:34:39 2023,50,The main experiment item,yes,CogPsy_Assignment_With_Instruction.osexp,C:/Users/lukas/OneDrive/Dokumente/Uni/VU/P1/Cognitive Psych/Experiment,no,mono,no,18,no,white,no,Professional and Technical Occupations,yes,768,C:/Users/lukas/OneDrive/Dokumente/Uni/VU/P1/Cognitive Psych/Experiment/log_without/subject-1.csv,fake,Melodramatic Milgram,4.0.5,GreyDenomination,left,return,NA,return,return,NA,left,779.2585,3482.3355,NA,4295.5865,19551.3157,NA,779.2585,NA,NA,2,fake_2_50,1024,2,48000,-16,experiment,1,odd,50091.348,NA,37826.4876,58163.5326,NA,46724.1526,18223.9355,130891.8591,NA,NA,131396.1799,86430.715,18270.7707,NA,NA,NA,NA,NA,NA,NA,NA,NA,54916.5712,NA,131396.3029,90726.7768,130886.837,NA,86414.6672,NA,54913.4506,132176.0143,NA,50088.4681,NA,NA,New experiment,5,35240.6148,9,1024
60,NA,60,3870,3870,#3d3846,psycho,NA,1,undefined,undefined,1,left,0,0,0,0,0,0,0,9,NA,0,9,0,0,NA,NA,NA,0,NA,NA,NA,NA,NA,0,NA,9,0,9,0,0,0,0,9,0,0,0,NA,Fri Oct 27 18:34:39 2023,20,The main experiment item,yes,CogPsy_Assignment_With_Instruction.osexp,C:/Users/lukas/OneDrive/Dokumente/Uni/VU/P1/Cognitive Psych/Experiment,no,mono,no,18,no,white,no,Professional and Technical Occupations,yes,768,C:/Users/lukas/OneDrive/Dokumente/Uni/VU/P1/Cognitive Psych/Experiment/log_without/subject-1.csv,fake,Melodramatic Milgram,4.0.5,BadInk2,left,return,NA,return,return,NA,left,3464.9222,3482.3355,NA,4295.5865,19551.3157,NA,3464.9222,NA,NA,2,fake_20,1024,2,48000,-16,experiment,1,odd,50091.348,NA,37826.4876,58163.5326,NA,46724.1526,18223.9355,132321.9569,NA,NA,132825.5344,86430.715,18270.7707,NA,NA,NA,NA,NA,NA,NA,NA,NA,54916.5712,NA,132825.6371,90726.7768,132316.9854,NA,86414.6672,NA,54913.4506,136291.0486,NA,50088.4681,NA,NA,New experiment,6,38705.537,10,1024
63,NA,63,3874,3874,#3d3846,psycho,NA,1,undefined,undefined,1,right,0,0,0,0,0,0,0,10,NA,0,10,0,0,NA,NA,NA,0,NA,NA,NA,NA,NA,0,NA,10,0,10,0,0,0,0,10,0,0,0,NA,Fri Oct 27 18:34:39 2023,50,The main experiment item,yes,CogPsy_Assignment_With_Instruction.osexp,C:/Users/lukas/OneDrive/Dokumente/Uni/VU/P1/Cognitive Psych/Experiment,no,mono,no,18,no,white,no,Professional and Technical Occupations,yes,768,C:/Users/lukas/OneDrive/Dokumente/Uni/VU/P1/Cognitive Psych/Experiment/log_without/subject-1.csv,real,Melodramatic Milgram,4.0.5,photo_2,right,return,NA,return,return,NA,right,3908.6827,3482.3355,NA,4295.5865,19551.3157,NA,3908.6827,NA,NA,2,real_50,1024,2,48000,-16,experiment,1,odd,50091.348,NA,37826.4876,58163.5326,NA,46724.1526,18223.9355,136395.6385,NA,NA,136899.7632,86430.715,18270.7707,NA,NA,NA,NA,NA,NA,NA,NA,NA,54916.5712,NA,136899.9319,90726.7768,136391.121,NA,86414.6672,NA,54913.4506,140809.0473,NA,50088.4681,NA,NA,New experiment,7,42614.2197,11,1024
66,NA,66,3629,3629,#3d3846,psycho,NA,1,undefined,undefined,1,left,0,0,0,0,0,0,0,11,NA,0,11,0,0,NA,NA,NA,0,NA,NA,NA,NA,NA,0,NA,11,0,11,0,0,0,0,11,0,0,0,NA,Fri Oct 27 18:34:39 2023,20,The main experiment item,yes,CogPsy_Assignment_With_Instruction.osexp,C:/Users/lukas/OneDrive/Dokumente/Uni/VU/P1/Cognitive Psych/Experiment,no,mono,no,18,no,white,no,Professional and Technical Occupations,yes,768,C:/Users/lukas/OneDrive/Dokumente/Uni/VU/P1/Cognitive Psych/Experiment/log_without/subject-1.csv,fake,Melodramatic Milgram,4.0.5,DullHologram,left,return,NA,return,return,NA,left,935.1073,3482.3355,NA,4295.5865,19551.3157,NA,935.1073,NA,NA,2,fake_20,1024,2,48000,-16,experiment,1,odd,50091.348,NA,37826.4876,58163.5326,NA,46724.1526,18223.9355,140940.6155,NA,NA,141446.5969,86430.715,18270.7707,NA,NA,NA,NA,NA,NA,NA,NA,NA,54916.5712,NA,141446.7019,90726.7768,140935.8636,NA,86414.6672,NA,54913.4506,142382.2764,NA,50088.4681,NA,NA,New experiment,8,43549.327,12,1024
69,NA,69,3407,3407,#3d3846,psycho,NA,1,undefined,undefined,1,left,0,0,0,0,0,0,0,12,NA,0,12,0,0,NA,NA,NA,0,NA,NA,NA,NA,NA,0,NA,12,0,12,0,0,0,0,12,0,0,0,NA,Fri Oct 27 18:34:39 2023,20,The main experiment item,yes,CogPsy_Assignment_With_Instruction.osexp,C:/Users/lukas/OneDrive/Dokumente/Uni/VU/P1/Cognitive Psych/Experiment,no,mono,no,18,no,white,no,Professional and Technical Occupations,yes,768,C:/Users/lukas/OneDrive/Dokumente/Uni/VU/P1/Cognitive Psych/Experiment/log_without/subject-1.csv,fake,Melodramatic Milgram,4.0.5,DullHologram2,left,return,NA,return,return,NA,left,743.2319,3482.3355,NA,4295.5865,19551.3157,NA,743.2319,NA,NA,2,fake_20,1024,2,48000,-16,experiment,1,odd,50091.348,NA,37826.4876,58163.5326,NA,46724.1526,18223.9355,142513.7566,NA,NA,143017.4719,86430.715,18270.7707,NA,NA,NA,NA,NA,NA,NA,NA,NA,54916.5712,NA,143017.61,90726.7768,142509.4131,NA,86414.6672,NA,54913.4506,143761.2684,NA,50088.4681,NA,NA,New experiment,9,44292.5589,13,1024
71,NA,71,3216,3216,#3d3846,psycho,NA,1,undefined,undefined,1,left,0,0,0,0,0,0,0,13,NA,0,13,0,0,NA,NA,NA,0,NA,NA,NA,NA,NA,0,NA,13,0,13,0,0,0,0,13,0,0,0,NA,Fri Oct 27 18:34:39 2023,50,The main experiment item,yes,CogPsy_Assignment_With_Instruction.osexp,C:/Users/lukas/OneDrive/Dokumente/Uni/VU/P1/Cognitive Psych/Experiment,no,mono,no,18,no,white,no,Professional and Technical Occupations,yes,768,C:/Users/lukas/OneDrive/Dokumente/Uni/VU/P1/Cognitive Psych/Experiment/log_without/subject-1.csv,fake,Melodramatic Milgram,4.0.5,PurpleDenomination3,left,return,NA,return,return,NA,left,736.2689,3482.3355,NA,4295.5865,19551.3157,NA,736.2689,NA,NA,2,fake_2_50,1024,2,48000,-16,experiment,1,odd,50091.348,NA,37826.4876,58163.5326,NA,46724.1526,18223.9355,143892.7843,NA,NA,144395.9605,86430.715,18270.7707,NA,NA,NA,NA,NA,NA,NA,NA,NA,54916.5712,NA,144396.0696,90726.7768,143888.6349,NA,86414.6672,NA,54913.4506,145132.8257,NA,50088.4681,NA,NA,New experiment,10,45028.8278,14,1024
66,NA,66,3104,3104,#3d3846,psycho,NA,0,undefined,undefined,0,left,0,0,0,0,0,0,0,14,NA,0,14,0,0,NA,NA,NA,0,NA,NA,NA,NA,NA,0,NA,14,0,14,0,0,0,0,14,0,0,0,NA,Fri Oct 27 18:34:39 2023,20,The main experiment item,yes,CogPsy_Assignment_With_Instruction.osexp,C:/Users/lukas/OneDrive/Dokumente/Uni/VU/P1/Cognitive Psych/Experiment,no,mono,no,18,no,white,no,Professional and Technical Occupations,yes,768,C:/Users/lukas/OneDrive/Dokumente/Uni/VU/P1/Cognitive Psych/Experiment/log_without/subject-1.csv,fake,Melodramatic Milgram,4.0.5,bottom_left,right,return,NA,return,return,NA,right,1534.1984,3482.3355,NA,4295.5865,19551.3157,NA,1534.1984,NA,NA,2,fake_1_20,1024,2,48000,-16,experiment,1,odd,50091.348,NA,37826.4876,58163.5326,NA,46724.1526,18223.9355,145247.2022,NA,NA,145751.146,86430.715,18270.7707,NA,NA,NA,NA,NA,NA,NA,NA,NA,54916.5712,NA,145751.3401,90726.7768,145242.5812,NA,86414.6672,NA,54913.4506,147286.0336,NA,50088.4681,NA,NA,New experiment,10,46563.0262,15,1024
62,NA,62,3317,3317,#3d3846,psycho,NA,0,undefined,undefined,0,left,0,0,0,0,0,0,0,15,NA,0,15,0,0,NA,NA,NA,0,NA,NA,NA,NA,NA,0,NA,15,0,15,0,0,0,0,15,0,0,0,NA,Fri Oct 27 18:34:39 2023,50,The main experiment item,yes,CogPsy_Assignment_With_Instruction.osexp,C:/Users/lukas/OneDrive/Dokumente/Uni/VU/P1/Cognitive Psych/Experiment,no,mono,no,18,no,white,no,Professional and Technical Occupations,yes,768,C:/Users/lukas/OneDrive/Dokumente/Uni/VU/P1/Cognitive Psych/Experiment/log_without/subject-1.csv,fake,Melodramatic Milgram,4.0.5,silver_strip,right,return,NA,return,return,NA,right,6514.7788,3482.3355,NA,4295.5865,19551.3157,NA,6514.7788,NA,NA,2,fake_2_50,1024,2,48000,-16,experiment,1,odd,50091.348,NA,37826.4876,58163.5326,NA,46724.1526,18223.9355,147402.3485,NA,NA,147906.3728,86430.715,18270.7707,NA,NA,NA,NA,NA,NA,NA,NA,NA,54916.5712,NA,147906.5729,90726.7768,147396.9384,NA,86414.6672,NA,54913.4506,154421.8321,NA,50088.4681,NA,NA,New experiment,10,53077.805,16,1024
64,NA,64,3191,3191,#3d3846,psycho,NA,1,undefined,undefined,1,right,0,0,0,0,0,0,0,16,NA,0,16,0,0,NA,NA,NA,0,NA,NA,NA,NA,NA,0,NA,16,0,16,0,0,0,0,16,0,0,0,NA,Fri Oct 27 18:34:39 2023,50,The main experiment item,yes,CogPsy_Assignment_With_Instruction.osexp,C:/Users/lukas/OneDrive/Dokumente/Uni/VU/P1/Cognitive Psych/Experiment,no,mono,no,18,no,white,no,Professional and Technical Occupations,yes,768,C:/Users/lukas/OneDrive/Dokumente/Uni/VU/P1/Cognitive Psych/Experiment/log_without/subject-1.csv,real,Melodramatic Milgram,4.0.5,genuine,right,return,NA,return,return,NA,right,1181.7642,3482.3355,NA,4295.5865,19551.3157,NA,1181.7642,NA,NA,2,real_50,1024,2,48000,-16,experiment,1,odd,50091.348,NA,37826.4876,58163.5326,NA,46724.1526,18223.9355,154517.7975,NA,NA,155021.6327,86430.715,18270.7707,NA,NA,NA,NA,NA,NA,NA,NA,NA,54916.5712,NA,155021.8084,90726.7768,154513.3609,NA,86414.6672,NA,54913.4506,156204.0238,NA,50088.4681,NA,NA,New experiment,11,54259.5692,17,1024
61,NA,61,3242,3242,#3d3846,psycho,NA,0,undefined,undefined,0,left,0,0,0,0,0,0,0,17,NA,0,17,0,0,NA,NA,NA,0,NA,NA,NA,NA,NA,0,NA,17,0,17,0,0,0,0,17,0,0,0,NA,Fri Oct 27 18:34:39 2023,50,The main experiment item,yes,CogPsy_Assignment_With_Instruction.osexp,C:/Users/lukas/OneDrive/Dokumente/Uni/VU/P1/Cognitive Psych/Experiment,no,mono,no,18,no,white,no,Professional and Technical Occupations,yes,768,C:/Users/lukas/OneDrive/Dokumente/Uni/VU/P1/Cognitive Psych/Experiment/log_without/subject-1.csv,fake,Melodramatic Milgram,4.0.5,GreyDenomination,right,return,NA,return,return,NA,right,4107.4888,3482.3355,NA,4295.5865,19551.3157,NA,4107.4888,NA,NA,2,fake_2_50,1024,2,48000,-16,experiment,1,odd,50091.348,NA,37826.4876,58163.5326,NA,46724.1526,18223.9355,156319.5058,NA,NA,156824.2386,86430.715,18270.7707,NA,NA,NA,NA,NA,NA,NA,NA,NA,54916.5712,NA,156824.4201,90726.7768,156314.714,NA,86414.6672,NA,54913.4506,160932.3971,NA,50088.4681,NA,NA,New experiment,11,58367.058,18,1024
57,NA,57,3108,3108,#3d3846,psycho,NA,0,undefined,undefined,0,left,0,0,0,0,0,0,0,18,NA,0,18,0,0,NA,NA,NA,0,NA,NA,NA,NA,NA,0,NA,18,0,18,0,0,0,0,18,0,0,0,NA,Fri Oct 27 18:34:39 2023,50,The main experiment item,yes,CogPsy_Assignment_With_Instruction.osexp,C:/Users/lukas/OneDrive/Dokumente/Uni/VU/P1/Cognitive Psych/Experiment,no,mono,no,18,no,white,no,Professional and Technical Occupations,yes,768,C:/Users/lukas/OneDrive/Dokumente/Uni/VU/P1/Cognitive Psych/Experiment/log_without/subject-1.csv,fake,Melodramatic Milgram,4.0.5,PurpleDenomination2,right,return,NA,return,return,NA,right,702.4794,3482.3355,NA,4295.5865,19551.3157,NA,702.4794,NA,NA,2,fake_2_50,1024,2,48000,-16,experiment,1,odd,50091.348,NA,37826.4876,58163.5326,NA,46724.1526,18223.9355,161060.5238,NA,NA,161565.0392,86430.715,18270.7707,NA,NA,NA,NA,NA,NA,NA,NA,NA,54916.5712,NA,161565.181,90726.7768,161056.1215,NA,86414.6672,NA,54913.4506,162268.1109,NA,50088.4681,NA,NA,New experiment,11,59069.5374,19,1024
60,NA,60,3015,3015,#3d3846,psycho,NA,1,undefined,undefined,1,left,0,0,0,0,0,0,0,19,NA,0,19,0,0,NA,NA,NA,0,NA,NA,NA,NA,NA,0,NA,19,0,19,0,0,0,0,19,0,0,0,NA,Fri Oct 27 18:34:39 2023,20,The main experiment item,yes,CogPsy_Assignment_With_Instruction.osexp,C:/Users/lukas/OneDrive/Dokumente/Uni/VU/P1/Cognitive Psych/Experiment,no,mono,no,18,no,white,no,Professional and Technical Occupations,yes,768,C:/Users/lukas/OneDrive/Dokumente/Uni/VU/P1/Cognitive Psych/Experiment/log_without/subject-1.csv,fake,Melodramatic Milgram,4.0.5,BadInk,left,return,NA,return,return,NA,left,1244.9305,3482.3355,NA,4295.5865,19551.3157,NA,1244.9305,NA,NA,2,fake_20,1024,2,48000,-16,experiment,1,odd,50091.348,NA,37826.4876,58163.5326,NA,46724.1526,18223.9355,162398.2514,NA,NA,162902.8545,86430.715,18270.7707,NA,NA,NA,NA,NA,NA,NA,NA,NA,54916.5712,NA,162902.9909,90726.7768,162393.1181,NA,86414.6672,NA,54913.4506,164148.3411,NA,50088.4681,NA,NA,New experiment,12,60314.4679,20,1024
57,NA,57,2907,2907,#3d3846,psycho,NA,0,undefined,undefined,0,left,0,0,0,0,0,0,0,20,NA,0,20,0,0,NA,NA,NA,0,NA,NA,NA,NA,NA,0,NA,20,0,20,0,0,0,0,20,0,0,0,NA,Fri Oct 27 18:34:39 2023,50,The main experiment item,yes,CogPsy_Assignment_With_Instruction.osexp,C:/Users/lukas/OneDrive/Dokumente/Uni/VU/P1/Cognitive Psych/Experiment,no,mono,no,18,no,white,no,Professional and Technical Occupations,yes,768,C:/Users/lukas/OneDrive/Dokumente/Uni/VU/P1/Cognitive Psych/Experiment/log_without/subject-1.csv,fake,Melodramatic Milgram,4.0.5,PurpleDenomination,right,return,NA,return,return,NA,right,736.1121,3482.3355,NA,4295.5865,19551.3157,NA,736.1121,NA,NA,2,fake_2_50,1024,2,48000,-16,experiment,1,odd,50091.348,NA,37826.4876,58163.5326,NA,46724.1526,18223.9355,164269.3357,NA,NA,164773.5087,86430.715,18270.7707,NA,NA,NA,NA,NA,NA,NA,NA,NA,54916.5712,NA,164773.6627,90726.7768,164264.2183,NA,86414.6672,NA,54913.4506,165510.2622,NA,50088.4681,NA,NA,New experiment,12,61050.58,21,1024
59,NA,59,2808,2808,#3d3846,psycho,NA,1,undefined,undefined,1,left,0,0,0,0,0,0,0,21,NA,0,21,0,0,NA,NA,NA,0,NA,NA,NA,NA,NA,0,NA,21,0,21,0,0,0,0,21,0,0,0,NA,Fri Oct 27 18:34:39 2023,50,The main experiment item,yes,CogPsy_Assignment_With_Instruction.osexp,C:/Users/lukas/OneDrive/Dokumente/Uni/VU/P1/Cognitive Psych/Experiment,no,mono,no,18,no,white,no,Professional and Technical Occupations,yes,768,C:/Users/lukas/OneDrive/Dokumente/Uni/VU/P1/Cognitive Psych/Experiment/log_without/subject-1.csv,fake,Melodramatic Milgram,4.0.5,PurpleDenomination3,left,return,NA,return,return,NA,left,744.1186,3482.3355,NA,4295.5865,19551.3157,NA,744.1186,NA,NA,2,fake_2_50,1024,2,48000,-16,experiment,1,odd,50091.348,NA,37826.4876,58163.5326,NA,46724.1526,18223.9355,165624.9928,NA,NA,166129.4048,86430.715,18270.7707,NA,NA,NA,NA,NA,NA,NA,NA,NA,54916.5712,NA,166129.5662,90726.7768,165620.4524,NA,86414.6672,NA,54913.4506,166874.2272,NA,50088.4681,NA,NA,New experiment,13,61794.6986,22,1024
60,NA,60,2837,2837,#3d3846,psycho,NA,1,undefined,undefined,1,left,0,0,0,0,0,0,0,22,NA,0,22,0,0,NA,NA,NA,0,NA,NA,NA,NA,NA,0,NA,22,0,22,0,0,0,0,22,0,0,0,NA,Fri Oct 27 18:34:39 2023,20,The main experiment item,yes,CogPsy_Assignment_With_Instruction.osexp,C:/Users/lukas/OneDrive/Dokumente/Uni/VU/P1/Cognitive Psych/Experiment,no,mono,no,18,no,white,no,Professional and Technical Occupations,yes,768,C:/Users/lukas/OneDrive/Dokumente/Uni/VU/P1/Cognitive Psych/Experiment/log_without/subject-1.csv,fake,Melodramatic Milgram,4.0.5,silver_strip,left,return,NA,return,return,NA,left,3467.909,3482.3355,NA,4295.5865,19551.3157,NA,3467.909,NA,NA,2,fake_2_20,1024,2,48000,-16,experiment,1,odd,50091.348,NA,37826.4876,58163.5326,NA,46724.1526,18223.9355,166993.0333,NA,NA,167496.9234,86430.715,18270.7707,NA,NA,NA,NA,NA,NA,NA,NA,NA,54916.5712,NA,167497.2506,90726.7768,166988.0867,NA,86414.6672,NA,54913.4506,170965.8071,NA,50088.4681,NA,NA,New experiment,14,65262.6076,23,1024
58,NA,58,2751,2751,#3d3846,psycho,NA,0,undefined,undefined,0,left,0,0,0,0,0,0,0,23,NA,0,23,0,0,NA,NA,NA,0,NA,NA,NA,NA,NA,0,NA,23,0,23,0,0,0,0,23,0,0,0,NA,Fri Oct 27 18:34:39 2023,20,The main experiment item,yes,CogPsy_Assignment_With_Instruction.osexp,C:/Users/lukas/OneDrive/Dokumente/Uni/VU/P1/Cognitive Psych/Experiment,no,mono,no,18,no,white,no,Professional and Technical Occupations,yes,768,C:/Users/lukas/OneDrive/Dokumente/Uni/VU/P1/Cognitive Psych/Experiment/log_without/subject-1.csv,fake,Melodramatic Milgram,4.0.5,bottom_left,right,return,NA,return,return,NA,right,782.5707,3482.3355,NA,4295.5865,19551.3157,NA,782.5707,NA,NA,2,fake_1_20,1024,2,48000,-16,experiment,1,odd,50091.348,NA,37826.4876,58163.5326,NA,46724.1526,18223.9355,171063.4044,NA,NA,171567.8901,86430.715,18270.7707,NA,NA,NA,NA,NA,NA,NA,NA,NA,54916.5712,NA,171568.0095,90726.7768,171058.985,NA,86414.6672,NA,54913.4506,172351.0354,NA,50088.4681,NA,NA,New experiment,14,66045.1783,24,1024
60,NA,60,2668,2668,#3d3846,psycho,NA,1,undefined,undefined,1,right,0,0,0,0,0,0,0,24,NA,0,24,0,0,NA,NA,NA,0,NA,NA,NA,NA,NA,0,NA,24,0,24,0,0,0,0,24,0,0,0,NA,Fri Oct 27 18:34:39 2023,50,The main experiment item,yes,CogPsy_Assignment_With_Instruction.osexp,C:/Users/lukas/OneDrive/Dokumente/Uni/VU/P1/Cognitive Psych/Experiment,no,mono,no,18,no,white,no,Professional and Technical Occupations,yes,768,C:/Users/lukas/OneDrive/Dokumente/Uni/VU/P1/Cognitive Psych/Experiment/log_without/subject-1.csv,real,Melodramatic Milgram,4.0.5,photo_2,right,return,NA,return,return,NA,right,676.5305,3482.3355,NA,4295.5865,19551.3157,NA,676.5305,NA,NA,2,real_50,1024,2,48000,-16,experiment,1,odd,50091.348,NA,37826.4876,58163.5326,NA,46724.1526,18223.9355,172457.946,NA,NA,172961.6037,86430.715,18270.7707,NA,NA,NA,NA,NA,NA,NA,NA,NA,54916.5712,NA,172961.7382,90726.7768,172453.3328,NA,86414.6672,NA,54913.4506,173638.8067,NA,50088.4681,NA,NA,New experiment,15,66721.7088,25,1024
57,NA,57,2591,2591,#3d3846,psycho,NA,0,undefined,undefined,0,right,0,0,0,0,0,0,0,25,NA,0,25,0,0,NA,NA,NA,0,NA,NA,NA,NA,NA,0,NA,25,0,25,0,0,0,0,25,0,0,0,NA,Fri Oct 27 18:34:39 2023,50,The main experiment item,yes,CogPsy_Assignment_With_Instruction.osexp,C:/Users/lukas/OneDrive/Dokumente/Uni/VU/P1/Cognitive Psych/Experiment,no,mono,no,18,no,white,no,Professional and Technical Occupations,yes,768,C:/Users/lukas/OneDrive/Dokumente/Uni/VU/P1/Cognitive Psych/Experiment/log_without/subject-1.csv,real,Melodramatic Milgram,4.0.5,genuine,left,return,NA,return,return,NA,left,649.0388,3482.3355,NA,4295.5865,19551.3157,NA,649.0388,NA,NA,2,real_50,1024,2,48000,-16,experiment,1,odd,50091.348,NA,37826.4876,58163.5326,NA,46724.1526,18223.9355,173733.7791,NA,NA,174238.2451,86430.715,18270.7707,NA,NA,NA,NA,NA,NA,NA,NA,NA,54916.5712,NA,174238.3676,90726.7768,173729.5351,NA,86414.6672,NA,54913.4506,174887.9513,NA,50088.4681,NA,NA,New experiment,15,67370.7476,26,1024
59,NA,59,2879,2879,#3d3846,psycho,NA,1,undefined,undefined,1,left,0,0,0,0,0,0,0,26,NA,0,26,0,0,NA,NA,NA,0,NA,NA,NA,NA,NA,0,NA,26,0,26,0,0,0,0,26,0,0,0,NA,Fri Oct 27 18:34:39 2023,20,The main experiment item,yes,CogPsy_Assignment_With_Instruction.osexp,C:/Users/lukas/OneDrive/Dokumente/Uni/VU/P1/Cognitive Psych/Experiment,no,mono,no,18,no,white,no,Professional and Technical Occupations,yes,768,C:/Users/lukas/OneDrive/Dokumente/Uni/VU/P1/Cognitive Psych/Experiment/log_without/subject-1.csv,fake,Melodramatic Milgram,4.0.5,DullHologram2,left,return,NA,return,return,NA,left,10370.4515,3482.3355,NA,4295.5865,19551.3157,NA,10370.4515,NA,NA,2,fake_20,1024,2,48000,-16,experiment,1,odd,50091.348,NA,37826.4876,58163.5326,NA,46724.1526,18223.9355,175002.1755,NA,NA,175506.488,86430.715,18270.7707,NA,NA,NA,NA,NA,NA,NA,NA,NA,54916.5712,NA,175506.6156,90726.7768,174998.0285,NA,86414.6672,NA,54913.4506,185877.6142,NA,50088.4681,NA,NA,New experiment,16,77741.1991,27,1024
60,NA,60,2804,2804,#3d3846,psycho,NA,1,undefined,undefined,1,left,0,0,0,0,0,0,0,27,NA,0,27,0,0,NA,NA,NA,0,NA,NA,NA,NA,NA,0,NA,27,0,27,0,0,0,0,27,0,0,0,NA,Fri Oct 27 18:34:39 2023,20,The main experiment item,yes,CogPsy_Assignment_With_Instruction.osexp,C:/Users/lukas/OneDrive/Dokumente/Uni/VU/P1/Cognitive Psych/Experiment,no,mono,no,18,no,white,no,Professional and Technical Occupations,yes,768,C:/Users/lukas/OneDrive/Dokumente/Uni/VU/P1/Cognitive Psych/Experiment/log_without/subject-1.csv,fake,Melodramatic Milgram,4.0.5,silver_strip,left,return,NA,return,return,NA,left,785.1122,3482.3355,NA,4295.5865,19551.3157,NA,785.1122,NA,NA,2,fake_2_20,1024,2,48000,-16,experiment,1,odd,50091.348,NA,37826.4876,58163.5326,NA,46724.1526,18223.9355,185991.2943,NA,NA,186496.0795,86430.715,18270.7707,NA,NA,NA,NA,NA,NA,NA,NA,NA,54916.5712,NA,186496.3281,90726.7768,185985.9705,NA,86414.6672,NA,54913.4506,187282.0628,NA,50088.4681,NA,NA,New experiment,17,78526.3113,28,1024
62,NA,62,2736,2736,#3d3846,psycho,NA,1,undefined,undefined,1,left,0,0,0,0,0,0,0,28,NA,0,28,0,0,NA,NA,NA,0,NA,NA,NA,NA,NA,0,NA,28,0,28,0,0,0,0,28,0,0,0,NA,Fri Oct 27 18:34:39 2023,20,The main experiment item,yes,CogPsy_Assignment_With_Instruction.osexp,C:/Users/lukas/OneDrive/Dokumente/Uni/VU/P1/Cognitive Psych/Experiment,no,mono,no,18,no,white,no,Professional and Technical Occupations,yes,768,C:/Users/lukas/OneDrive/Dokumente/Uni/VU/P1/Cognitive Psych/Experiment/log_without/subject-1.csv,fake,Melodramatic Milgram,4.0.5,BrownDenomination,left,return,NA,return,return,NA,left,823.5337,3482.3355,NA,4295.5865,19551.3157,NA,823.5337,NA,NA,2,fake_20,1024,2,48000,-16,experiment,1,odd,50091.348,NA,37826.4876,58163.5326,NA,46724.1526,18223.9355,187404.0065,NA,NA,187907.3117,86430.715,18270.7707,NA,NA,NA,NA,NA,NA,NA,NA,NA,54916.5712,NA,187907.4347,90726.7768,187399.4909,NA,86414.6672,NA,54913.4506,188731.557,NA,50088.4681,NA,NA,New experiment,18,79349.845,29,1024
63,NA,63,2670,2670,#3d3846,psycho,NA,1,undefined,undefined,1,left,0,0,0,0,0,0,0,29,NA,0,29,0,0,NA,NA,NA,0,NA,NA,NA,NA,NA,0,NA,29,0,29,0,0,0,0,29,0,0,0,NA,Fri Oct 27 18:34:39 2023,50,The main experiment item,yes,CogPsy_Assignment_With_Instruction.osexp,C:/Users/lukas/OneDrive/Dokumente/Uni/VU/P1/Cognitive Psych/Experiment,no,mono,no,18,no,white,no,Professional and Technical Occupations,yes,768,C:/Users/lukas/OneDrive/Dokumente/Uni/VU/P1/Cognitive Psych/Experiment/log_without/subject-1.csv,fake,Melodramatic Milgram,4.0.5,silver_strip,left,return,NA,return,return,NA,left,752.1719,3482.3355,NA,4295.5865,19551.3157,NA,752.1719,NA,NA,2,fake_2_50,1024,2,48000,-16,experiment,1,odd,50091.348,NA,37826.4876,58163.5326,NA,46724.1526,18223.9355,188831.0369,NA,NA,189334.9895,86430.715,18270.7707,NA,NA,NA,NA,NA,NA,NA,NA,NA,54916.5712,NA,189335.1272,90726.7768,188826.4996,NA,86414.6672,NA,54913.4506,190087.8586,NA,50088.4681,NA,NA,New experiment,19,80102.0169,30,1024
61,NA,61,2658,2658,#3d3846,psycho,NA,0,undefined,undefined,0,left,0,0,0,0,0,0,0,30,NA,0,30,0,0,NA,NA,NA,0,NA,NA,NA,NA,NA,0,NA,30,0,30,0,0,0,0,30,0,0,0,NA,Fri Oct 27 18:34:39 2023,20,The main experiment item,yes,CogPsy_Assignment_With_Instruction.osexp,C:/Users/lukas/OneDrive/Dokumente/Uni/VU/P1/Cognitive Psych/Experiment,no,mono,no,18,no,white,no,Professional and Technical Occupations,yes,768,C:/Users/lukas/OneDrive/Dokumente/Uni/VU/P1/Cognitive Psych/Experiment/log_without/subject-1.csv,fake,Melodramatic Milgram,4.0.5,BrownDenomination,right,return,NA,return,return,NA,right,2309.9551,3482.3355,NA,4295.5865,19551.3157,NA,2309.9551,NA,NA,2,fake_20,1024,2,48000,-16,experiment,1,odd,50091.348,NA,37826.4876,58163.5326,NA,46724.1526,18223.9355,190199.583,NA,NA,190703.7218,86430.715,18270.7707,NA,NA,NA,NA,NA,NA,NA,NA,NA,54916.5712,NA,190703.8583,90726.7768,190195.5445,NA,86414.6672,NA,54913.4506,193014.3429,NA,50088.4681,NA,NA,New experiment,19,82411.972,31,1024
59,NA,59,2596,2596,#3d3846,psycho,NA,0,undefined,undefined,0,left,0,0,0,0,0,0,0,31,NA,0,31,0,0,NA,NA,NA,0,NA,NA,NA,NA,NA,0,NA,31,0,31,0,0,0,0,31,0,0,0,NA,Fri Oct 27 18:34:39 2023,20,The main experiment item,yes,CogPsy_Assignment_With_Instruction.osexp,C:/Users/lukas/OneDrive/Dokumente/Uni/VU/P1/Cognitive Psych/Experiment,no,mono,no,18,no,white,no,Professional and Technical Occupations,yes,768,C:/Users/lukas/OneDrive/Dokumente/Uni/VU/P1/Cognitive Psych/Experiment/log_without/subject-1.csv,fake,Melodramatic Milgram,4.0.5,NoNumOnThread_BlurryWatermark,right,return,NA,return,return,NA,right,669.9454,3482.3355,NA,4295.5865,19551.3157,NA,669.9454,NA,NA,2,fake_20,1024,2,48000,-16,experiment,1,odd,50091.348,NA,37826.4876,58163.5326,NA,46724.1526,18223.9355,193163.1337,NA,NA,193667.0958,86430.715,18270.7707,NA,NA,NA,NA,NA,NA,NA,NA,NA,54916.5712,NA,193667.1923,90726.7768,193157.6517,NA,86414.6672,NA,54913.4506,194337.678,NA,50088.4681,NA,NA,New experiment,19,83081.9174,32,1024
57,NA,57,2632,2632,#3d3846,psycho,NA,0,undefined,undefined,0,left,0,0,0,0,0,0,0,32,NA,0,32,0,0,NA,NA,NA,0,NA,NA,NA,NA,NA,0,NA,32,0,32,0,0,0,0,32,0,0,0,NA,Fri Oct 27 18:34:39 2023,20,The main experiment item,yes,CogPsy_Assignment_With_Instruction.osexp,C:/Users/lukas/OneDrive/Dokumente/Uni/VU/P1/Cognitive Psych/Experiment,no,mono,no,18,no,white,no,Professional and Technical Occupations,yes,768,C:/Users/lukas/OneDrive/Dokumente/Uni/VU/P1/Cognitive Psych/Experiment/log_without/subject-1.csv,fake,Melodramatic Milgram,4.0.5,BadInk,right,return,NA,return,return,NA,right,3800.8731,3482.3355,NA,4295.5865,19551.3157,NA,3800.8731,NA,NA,2,fake_20,1024,2,48000,-16,experiment,1,odd,50091.348,NA,37826.4876,58163.5326,NA,46724.1526,18223.9355,194454.479,NA,NA,194958.6429,86430.715,18270.7707,NA,NA,NA,NA,NA,NA,NA,NA,NA,54916.5712,NA,194958.8509,90726.7768,194449.9604,NA,86414.6672,NA,54913.4506,198760.2556,NA,50088.4681,NA,NA,New experiment,19,86882.7905,33,1024
58,NA,58,2578,2578,#3d3846,psycho,NA,1,undefined,undefined,1,left,0,0,0,0,0,0,0,33,NA,0,33,0,0,NA,NA,NA,0,NA,NA,NA,NA,NA,0,NA,33,0,33,0,0,0,0,33,0,0,0,NA,Fri Oct 27 18:34:39 2023,20,The main experiment item,yes,CogPsy_Assignment_With_Instruction.osexp,C:/Users/lukas/OneDrive/Dokumente/Uni/VU/P1/Cognitive Psych/Experiment,no,mono,no,18,no,white,no,Professional and Technical Occupations,yes,768,C:/Users/lukas/OneDrive/Dokumente/Uni/VU/P1/Cognitive Psych/Experiment/log_without/subject-1.csv,fake,Melodramatic Milgram,4.0.5,BadInk2,left,return,NA,return,return,NA,left,802.7095,3482.3355,NA,4295.5865,19551.3157,NA,802.7095,NA,NA,2,fake_20,1024,2,48000,-16,experiment,1,odd,50091.348,NA,37826.4876,58163.5326,NA,46724.1526,18223.9355,198890.5416,NA,NA,199394.5417,86430.715,18270.7707,NA,NA,NA,NA,NA,NA,NA,NA,NA,54916.5712,NA,199394.6521,90726.7768,198884.8738,NA,86414.6672,NA,54913.4506,200197.9267,NA,50088.4681,NA,NA,New experiment,20,87685.5,34,1024
57,NA,57,2526,2526,#3d3846,psycho,NA,0,undefined,undefined,0,right,0,0,0,0,0,0,0,34,NA,0,34,0,0,NA,NA,NA,0,NA,NA,NA,NA,NA,0,NA,34,0,34,0,0,0,0,34,0,0,0,NA,Fri Oct 27 18:34:39 2023,20,The main experiment item,yes,CogPsy_Assignment_With_Instruction.osexp,C:/Users/lukas/OneDrive/Dokumente/Uni/VU/P1/Cognitive Psych/Experiment,no,mono,no,18,no,white,no,Professional and Technical Occupations,yes,768,C:/Users/lukas/OneDrive/Dokumente/Uni/VU/P1/Cognitive Psych/Experiment/log_without/subject-1.csv,real,Melodramatic Milgram,4.0.5,genuine,left,return,NA,return,return,NA,left,739.6045,3482.3355,NA,4295.5865,19551.3157,NA,739.6045,NA,NA,2,real_20,1024,2,48000,-16,experiment,1,odd,50091.348,NA,37826.4876,58163.5326,NA,46724.1526,18223.9355,200299.519,NA,NA,200803.0646,86430.715,18270.7707,NA,NA,NA,NA,NA,NA,NA,NA,NA,54916.5712,NA,200803.1883,90726.7768,200294.742,NA,86414.6672,NA,54913.4506,201543.494,NA,50088.4681,NA,NA,New experiment,20,88425.1045,35,1024
55,NA,55,2524,2524,#3d3846,psycho,NA,0,undefined,undefined,0,left,0,0,0,0,0,0,0,35,NA,0,35,0,0,NA,NA,NA,0,NA,NA,NA,NA,NA,0,NA,35,0,35,0,0,0,0,35,0,0,0,NA,Fri Oct 27 18:34:39 2023,50,The main experiment item,yes,CogPsy_Assignment_With_Instruction.osexp,C:/Users/lukas/OneDrive/Dokumente/Uni/VU/P1/Cognitive Psych/Experiment,no,mono,no,18,no,white,no,Professional and Technical Occupations,yes,768,C:/Users/lukas/OneDrive/Dokumente/Uni/VU/P1/Cognitive Psych/Experiment/log_without/subject-1.csv,fake,Melodramatic Milgram,4.0.5,BadInk,right,return,NA,return,return,NA,right,2456.5503,3482.3355,NA,4295.5865,19551.3157,NA,2456.5503,NA,NA,2,fake_2_50,1024,2,48000,-16,experiment,1,odd,50091.348,NA,37826.4876,58163.5326,NA,46724.1526,18223.9355,201683.8459,NA,NA,202187.8331,86430.715,18270.7707,NA,NA,NA,NA,NA,NA,NA,NA,NA,54916.5712,NA,202187.9262,90726.7768,201678.9081,NA,86414.6672,NA,54913.4506,204645.04,NA,50088.4681,NA,NA,New experiment,20,90881.6548,36,1024
54,NA,54,2503,2503,#3d3846,psycho,NA,0,undefined,undefined,0,left,0,0,0,0,0,0,0,36,NA,0,36,0,0,NA,NA,NA,0,NA,NA,NA,NA,NA,0,NA,36,0,36,0,0,0,0,36,0,0,0,NA,Fri Oct 27 18:34:39 2023,50,The main experiment item,yes,CogPsy_Assignment_With_Instruction.osexp,C:/Users/lukas/OneDrive/Dokumente/Uni/VU/P1/Cognitive Psych/Experiment,no,mono,no,18,no,white,no,Professional and Technical Occupations,yes,768,C:/Users/lukas/OneDrive/Dokumente/Uni/VU/P1/Cognitive Psych/Experiment/log_without/subject-1.csv,fake,Melodramatic Milgram,4.0.5,BadInk,right,return,NA,return,return,NA,right,1729.559,3482.3355,NA,4295.5865,19551.3157,NA,1729.559,NA,NA,2,fake_2_50,1024,2,48000,-16,experiment,1,odd,50091.348,NA,37826.4876,58163.5326,NA,46724.1526,18223.9355,204776.4088,NA,NA,205280.0133,86430.715,18270.7707,NA,NA,NA,NA,NA,NA,NA,NA,NA,54916.5712,NA,205280.1291,90726.7768,204771.3191,NA,86414.6672,NA,54913.4506,207010.2797,NA,50088.4681,NA,NA,New experiment,20,92611.2138,37,1024
55,NA,55,2462,2462,#3d3846,psycho,NA,1,undefined,undefined,1,right,0,0,0,0,0,0,0,37,NA,0,37,0,0,NA,NA,NA,0,NA,NA,NA,NA,NA,0,NA,37,0,37,0,0,0,0,37,0,0,0,NA,Fri Oct 27 18:34:39 2023,20,The main experiment item,yes,CogPsy_Assignment_With_Instruction.osexp,C:/Users/lukas/OneDrive/Dokumente/Uni/VU/P1/Cognitive Psych/Experiment,no,mono,no,18,no,white,no,Professional and Technical Occupations,yes,768,C:/Users/lukas/OneDrive/Dokumente/Uni/VU/P1/Cognitive Psych/Experiment/log_without/subject-1.csv,real,Melodramatic Milgram,4.0.5,genuine,right,return,NA,return,return,NA,right,958.2408,3482.3355,NA,4295.5865,19551.3157,NA,958.2408,NA,NA,2,real_20,1024,2,48000,-16,experiment,1,odd,50091.348,NA,37826.4876,58163.5326,NA,46724.1526,18223.9355,207104.716,NA,NA,207609.2361,86430.715,18270.7707,NA,NA,NA,NA,NA,NA,NA,NA,NA,54916.5712,NA,207609.3463,90726.7768,207099.8747,NA,86414.6672,NA,54913.4506,208568.1458,NA,50088.4681,NA,NA,New experiment,21,93569.4546,38,1024
53,NA,53,2415,2415,#3d3846,psycho,NA,0,undefined,undefined,0,left,0,0,0,0,0,0,0,38,NA,0,38,0,0,NA,NA,NA,0,NA,NA,NA,NA,NA,0,NA,38,0,38,0,0,0,0,38,0,0,0,NA,Fri Oct 27 18:34:39 2023,20,The main experiment item,yes,CogPsy_Assignment_With_Instruction.osexp,C:/Users/lukas/OneDrive/Dokumente/Uni/VU/P1/Cognitive Psych/Experiment,no,mono,no,18,no,white,no,Professional and Technical Occupations,yes,768,C:/Users/lukas/OneDrive/Dokumente/Uni/VU/P1/Cognitive Psych/Experiment/log_without/subject-1.csv,fake,Melodramatic Milgram,4.0.5,NoNumOnThread_BlurryWatermark,right,return,NA,return,return,NA,right,617.1587,3482.3355,NA,4295.5865,19551.3157,NA,617.1587,NA,NA,2,fake_20,1024,2,48000,-16,experiment,1,odd,50091.348,NA,37826.4876,58163.5326,NA,46724.1526,18223.9355,208701.0064,NA,NA,209204.3205,86430.715,18270.7707,NA,NA,NA,NA,NA,NA,NA,NA,NA,54916.5712,NA,209204.5145,90726.7768,208695.5837,NA,86414.6672,NA,54913.4506,209822.3118,NA,50088.4681,NA,NA,New experiment,21,94186.6133,39,1024
55,NA,55,2373,2373,#3d3846,psycho,NA,1,undefined,undefined,1,left,0,0,0,0,0,0,0,39,NA,0,39,0,0,NA,NA,NA,0,NA,NA,NA,NA,NA,0,NA,39,0,39,0,0,0,0,39,0,0,0,NA,Fri Oct 27 18:34:39 2023,50,The main experiment item,yes,CogPsy_Assignment_With_Instruction.osexp,C:/Users/lukas/OneDrive/Dokumente/Uni/VU/P1/Cognitive Psych/Experiment,no,mono,no,18,no,white,no,Professional and Technical Occupations,yes,768,C:/Users/lukas/OneDrive/Dokumente/Uni/VU/P1/Cognitive Psych/Experiment/log_without/subject-1.csv,fake,Melodramatic Milgram,4.0.5,bottom_left,left,return,NA,return,return,NA,left,736.9072,3482.3355,NA,4295.5865,19551.3157,NA,736.9072,NA,NA,2,fake_1_50,1024,2,48000,-16,experiment,1,odd,50091.348,NA,37826.4876,58163.5326,NA,46724.1526,18223.9355,209928.0894,NA,NA,210432.7068,86430.715,18270.7707,NA,NA,NA,NA,NA,NA,NA,NA,NA,54916.5712,NA,210432.8715,90726.7768,209922.9769,NA,86414.6672,NA,54913.4506,211170.4021,NA,50088.4681,NA,NA,New experiment,22,94923.5205,40,1024
53,NA,53,2333,2333,#3d3846,psycho,NA,0,undefined,undefined,0,left,0,0,0,0,0,0,0,40,NA,0,40,0,0,NA,NA,NA,0,NA,NA,NA,NA,NA,0,NA,40,0,40,0,0,0,0,40,0,0,0,NA,Fri Oct 27 18:34:39 2023,50,The main experiment item,yes,CogPsy_Assignment_With_Instruction.osexp,C:/Users/lukas/OneDrive/Dokumente/Uni/VU/P1/Cognitive Psych/Experiment,no,mono,no,18,no,white,no,Professional and Technical Occupations,yes,768,C:/Users/lukas/OneDrive/Dokumente/Uni/VU/P1/Cognitive Psych/Experiment/log_without/subject-1.csv,fake,Melodramatic Milgram,4.0.5,PurpleDenomination,right,return,NA,return,return,NA,right,768.0903,3482.3355,NA,4295.5865,19551.3157,NA,768.0903,NA,NA,2,fake_2_50,1024,2,48000,-16,experiment,1,odd,50091.348,NA,37826.4876,58163.5326,NA,46724.1526,18223.9355,211276.7122,NA,NA,211781.1152,86430.715,18270.7707,NA,NA,NA,NA,NA,NA,NA,NA,NA,54916.5712,NA,211781.2966,90726.7768,211271.5048,NA,86414.6672,NA,54913.4506,212549.9249,NA,50088.4681,NA,NA,New experiment,22,95691.6108,41,1024
54,NA,54,2293,2293,#3d3846,psycho,NA,1,undefined,undefined,1,right,0,0,0,0,0,0,0,41,NA,0,41,0,0,NA,NA,NA,0,NA,NA,NA,NA,NA,0,NA,41,0,41,0,0,0,0,41,0,0,0,NA,Fri Oct 27 18:34:39 2023,50,The main experiment item,yes,CogPsy_Assignment_With_Instruction.osexp,C:/Users/lukas/OneDrive/Dokumente/Uni/VU/P1/Cognitive Psych/Experiment,no,mono,no,18,no,white,no,Professional and Technical Occupations,yes,768,C:/Users/lukas/OneDrive/Dokumente/Uni/VU/P1/Cognitive Psych/Experiment/log_without/subject-1.csv,real,Melodramatic Milgram,4.0.5,photo,right,return,NA,return,return,NA,right,640.2839,3482.3355,NA,4295.5865,19551.3157,NA,640.2839,NA,NA,2,real_50,1024,2,48000,-16,experiment,1,odd,50091.348,NA,37826.4876,58163.5326,NA,46724.1526,18223.9355,212668.7417,NA,NA,213172.67,86430.715,18270.7707,NA,NA,NA,NA,NA,NA,NA,NA,NA,54916.5712,NA,213172.783,90726.7768,212664.0747,NA,86414.6672,NA,54913.4506,213813.6679,NA,50088.4681,NA,NA,New experiment,23,96331.8947,42,1024
55,NA,55,2255,2255,#3d3846,psycho,NA,1,undefined,undefined,1,left,0,0,0,0,0,0,0,42,NA,0,42,0,0,NA,NA,NA,0,NA,NA,NA,NA,NA,0,NA,42,0,42,0,0,0,0,42,0,0,0,NA,Fri Oct 27 18:34:39 2023,50,The main experiment item,yes,CogPsy_Assignment_With_Instruction.osexp,C:/Users/lukas/OneDrive/Dokumente/Uni/VU/P1/Cognitive Psych/Experiment,no,mono,no,18,no,white,no,Professional and Technical Occupations,yes,768,C:/Users/lukas/OneDrive/Dokumente/Uni/VU/P1/Cognitive Psych/Experiment/log_without/subject-1.csv,fake,Melodramatic Milgram,4.0.5,bottom_left,left,return,NA,return,return,NA,left,646.2235,3482.3355,NA,4295.5865,19551.3157,NA,646.2235,NA,NA,2,fake_1_50,1024,2,48000,-16,experiment,1,odd,50091.348,NA,37826.4876,58163.5326,NA,46724.1526,18223.9355,213909.0659,NA,NA,214414.1494,86430.715,18270.7707,NA,NA,NA,NA,NA,NA,NA,NA,NA,54916.5712,NA,214414.2779,90726.7768,213904.6006,NA,86414.6672,NA,54913.4506,215061.1418,NA,50088.4681,NA,NA,New experiment,24,96978.1182,43,1024
56,NA,56,2218,2218,#3d3846,psycho,NA,1,undefined,undefined,1,right,0,0,0,0,0,0,0,43,NA,0,43,0,0,NA,NA,NA,0,NA,NA,NA,NA,NA,0,NA,43,0,43,0,0,0,0,43,0,0,0,NA,Fri Oct 27 18:34:39 2023,20,The main experiment item,yes,CogPsy_Assignment_With_Instruction.osexp,C:/Users/lukas/OneDrive/Dokumente/Uni/VU/P1/Cognitive Psych/Experiment,no,mono,no,18,no,white,no,Professional and Technical Occupations,yes,768,C:/Users/lukas/OneDrive/Dokumente/Uni/VU/P1/Cognitive Psych/Experiment/log_without/subject-1.csv,real,Melodramatic Milgram,4.0.5,photo,right,return,NA,return,return,NA,right,621.434,3482.3355,NA,4295.5865,19551.3157,NA,621.434,NA,NA,2,real_20,1024,2,48000,-16,experiment,1,odd,50091.348,NA,37826.4876,58163.5326,NA,46724.1526,18223.9355,215194.5033,NA,NA,215699.585,86430.715,18270.7707,NA,NA,NA,NA,NA,NA,NA,NA,NA,54916.5712,NA,215699.6658,90726.7768,215188.3932,NA,86414.6672,NA,54913.4506,216321.6835,NA,50088.4681,NA,NA,New experiment,25,97599.5522,44,1024
57,NA,57,2186,2186,#3d3846,psycho,NA,1,undefined,undefined,1,left,0,0,0,0,0,0,0,44,NA,0,44,0,0,NA,NA,NA,0,NA,NA,NA,NA,NA,0,NA,44,0,44,0,0,0,0,44,0,0,0,NA,Fri Oct 27 18:34:39 2023,20,The main experiment item,yes,CogPsy_Assignment_With_Instruction.osexp,C:/Users/lukas/OneDrive/Dokumente/Uni/VU/P1/Cognitive Psych/Experiment,no,mono,no,18,no,white,no,Professional and Technical Occupations,yes,768,C:/Users/lukas/OneDrive/Dokumente/Uni/VU/P1/Cognitive Psych/Experiment/log_without/subject-1.csv,fake,Melodramatic Milgram,4.0.5,PurpleDenomination,left,return,NA,return,return,NA,left,785.6625,3482.3355,NA,4295.5865,19551.3157,NA,785.6625,NA,NA,2,fake_20,1024,2,48000,-16,experiment,1,odd,50091.348,NA,37826.4876,58163.5326,NA,46724.1526,18223.9355,216431.0813,NA,NA,216934.8851,86430.715,18270.7707,NA,NA,NA,NA,NA,NA,NA,NA,NA,54916.5712,NA,216935.0138,90726.7768,216427.0715,NA,86414.6672,NA,54913.4506,217721.3257,NA,50088.4681,NA,NA,New experiment,26,98385.2147,45,1024
58,NA,58,2151,2151,#3d3846,psycho,NA,1,undefined,undefined,1,right,0,0,0,0,0,0,0,45,NA,0,45,0,0,NA,NA,NA,0,NA,NA,NA,NA,NA,0,NA,45,0,45,0,0,0,0,45,0,0,0,NA,Fri Oct 27 18:34:39 2023,20,The main experiment item,yes,CogPsy_Assignment_With_Instruction.osexp,C:/Users/lukas/OneDrive/Dokumente/Uni/VU/P1/Cognitive Psych/Experiment,no,mono,no,18,no,white,no,Professional and Technical Occupations,yes,768,C:/Users/lukas/OneDrive/Dokumente/Uni/VU/P1/Cognitive Psych/Experiment/log_without/subject-1.csv,real,Melodramatic Milgram,4.0.5,photo,right,return,NA,return,return,NA,right,591.2462,3482.3355,NA,4295.5865,19551.3157,NA,591.2462,NA,NA,2,real_20,1024,2,48000,-16,experiment,1,odd,50091.348,NA,37826.4876,58163.5326,NA,46724.1526,18223.9355,217855.4139,NA,NA,218359.7859,86430.715,18270.7707,NA,NA,NA,NA,NA,NA,NA,NA,NA,54916.5712,NA,218359.9035,90726.7768,217849.576,NA,86414.6672,NA,54913.4506,218951.7281,NA,50088.4681,NA,NA,New experiment,27,98976.4609,46,1024
59,NA,59,2118,2118,#3d3846,psycho,NA,1,undefined,undefined,1,right,0,0,0,0,0,0,0,46,NA,0,46,0,0,NA,NA,NA,0,NA,NA,NA,NA,NA,0,NA,46,0,46,0,0,0,0,46,0,0,0,NA,Fri Oct 27 18:34:39 2023,50,The main experiment item,yes,CogPsy_Assignment_With_Instruction.osexp,C:/Users/lukas/OneDrive/Dokumente/Uni/VU/P1/Cognitive Psych/Experiment,no,mono,no,18,no,white,no,Professional and Technical Occupations,yes,768,C:/Users/lukas/OneDrive/Dokumente/Uni/VU/P1/Cognitive Psych/Experiment/log_without/subject-1.csv,real,Melodramatic Milgram,4.0.5,photo,right,return,NA,return,return,NA,right,579.2554,3482.3355,NA,4295.5865,19551.3157,NA,579.2554,NA,NA,2,real_50,1024,2,48000,-16,experiment,1,odd,50091.348,NA,37826.4876,58163.5326,NA,46724.1526,18223.9355,219069.552,NA,NA,219573.9375,86430.715,18270.7707,NA,NA,NA,NA,NA,NA,NA,NA,NA,54916.5712,NA,219574.125,90726.7768,219064.5447,NA,86414.6672,NA,54913.4506,220153.9972,NA,50088.4681,NA,NA,New experiment,28,99555.7163,47,1024
58,NA,58,2086,2086,#3d3846,psycho,NA,0,undefined,undefined,0,left,0,0,0,0,0,0,0,47,NA,0,47,0,0,NA,NA,NA,0,NA,NA,NA,NA,NA,0,NA,47,0,47,0,0,0,0,47,0,0,0,NA,Fri Oct 27 18:34:39 2023,50,The main experiment item,yes,CogPsy_Assignment_With_Instruction.osexp,C:/Users/lukas/OneDrive/Dokumente/Uni/VU/P1/Cognitive Psych/Experiment,no,mono,no,18,no,white,no,Professional and Technical Occupations,yes,768,C:/Users/lukas/OneDrive/Dokumente/Uni/VU/P1/Cognitive Psych/Experiment/log_without/subject-1.csv,fake,Melodramatic Milgram,4.0.5,NoNumOnThread_BlurryWatermark,right,return,NA,return,return,NA,right,601.6146,3482.3355,NA,4295.5865,19551.3157,NA,601.6146,NA,NA,2,fake_2_50,1024,2,48000,-16,experiment,1,odd,50091.348,NA,37826.4876,58163.5326,NA,46724.1526,18223.9355,220279.4326,NA,NA,220783.5887,86430.715,18270.7707,NA,NA,NA,NA,NA,NA,NA,NA,NA,54916.5712,NA,220783.7548,90726.7768,220272.8139,NA,86414.6672,NA,54913.4506,221385.9641,NA,50088.4681,NA,NA,New experiment,28,100157.3309,48,1024
59,NA,59,2055,2055,#3d3846,psycho,NA,1,undefined,undefined,1,right,0,0,0,0,0,0,0,48,NA,0,48,0,0,NA,NA,NA,0,NA,NA,NA,NA,NA,0,NA,48,0,48,0,0,0,0,48,0,0,0,NA,Fri Oct 27 18:34:39 2023,50,The main experiment item,yes,CogPsy_Assignment_With_Instruction.osexp,C:/Users/lukas/OneDrive/Dokumente/Uni/VU/P1/Cognitive Psych/Experiment,no,mono,no,18,no,white,no,Professional and Technical Occupations,yes,768,C:/Users/lukas/OneDrive/Dokumente/Uni/VU/P1/Cognitive Psych/Experiment/log_without/subject-1.csv,real,Melodramatic Milgram,4.0.5,photo_2,right,return,NA,return,return,NA,right,569.5456,3482.3355,NA,4295.5865,19551.3157,NA,569.5456,NA,NA,2,real_50,1024,2,48000,-16,experiment,1,odd,50091.348,NA,37826.4876,58163.5326,NA,46724.1526,18223.9355,221493.4611,NA,NA,221998.3212,86430.715,18270.7707,NA,NA,NA,NA,NA,NA,NA,NA,NA,54916.5712,NA,221998.4822,90726.7768,221488.8479,NA,86414.6672,NA,54913.4506,222568.6124,NA,50088.4681,NA,NA,New experiment,29,100726.8765,49,1024
58,NA,58,2025,2025,#3d3846,psycho,NA,0,undefined,undefined,0,left,0,0,0,0,0,0,0,49,NA,0,49,0,0,NA,NA,NA,0,NA,NA,NA,NA,NA,0,NA,49,0,49,0,0,0,0,49,0,0,0,NA,Fri Oct 27 18:34:39 2023,50,The main experiment item,yes,CogPsy_Assignment_With_Instruction.osexp,C:/Users/lukas/OneDrive/Dokumente/Uni/VU/P1/Cognitive Psych/Experiment,no,mono,no,18,no,white,no,Professional and Technical Occupations,yes,768,C:/Users/lukas/OneDrive/Dokumente/Uni/VU/P1/Cognitive Psych/Experiment/log_without/subject-1.csv,fake,Melodramatic Milgram,4.0.5,NoNumOnThread_BlurryWatermark,right,return,NA,return,return,NA,right,543.2409,3482.3355,NA,4295.5865,19551.3157,NA,543.2409,NA,NA,2,fake_2_50,1024,2,48000,-16,experiment,1,odd,50091.348,NA,37826.4876,58163.5326,NA,46724.1526,18223.9355,222685.6889,NA,NA,223189.8541,86430.715,18270.7707,NA,NA,NA,NA,NA,NA,NA,NA,NA,54916.5712,NA,223190.0517,90726.7768,222680.9799,NA,86414.6672,NA,54913.4506,223733.8815,NA,50088.4681,NA,NA,New experiment,29,101270.1174,50,1024
56,NA,56,1998,1998,#3d3846,psycho,NA,0,undefined,undefined,0,right,0,0,0,0,0,0,0,50,NA,0,50,0,0,NA,NA,NA,0,NA,NA,NA,NA,NA,0,NA,50,0,50,0,0,0,0,50,0,0,0,NA,Fri Oct 27 18:34:39 2023,50,The main experiment item,yes,CogPsy_Assignment_With_Instruction.osexp,C:/Users/lukas/OneDrive/Dokumente/Uni/VU/P1/Cognitive Psych/Experiment,no,mono,no,18,no,white,no,Professional and Technical Occupations,yes,768,C:/Users/lukas/OneDrive/Dokumente/Uni/VU/P1/Cognitive Psych/Experiment/log_without/subject-1.csv,real,Melodramatic Milgram,4.0.5,genuine,left,return,NA,return,return,NA,left,629.3945,3482.3355,NA,4295.5865,19551.3157,NA,629.3945,NA,NA,2,real_20,1024,2,48000,-16,experiment,1,odd,50091.348,NA,37826.4876,58163.5326,NA,46724.1526,18223.9355,223831.2295,NA,NA,224336.0278,86430.715,18270.7707,NA,NA,NA,NA,NA,NA,NA,NA,NA,54916.5712,NA,224336.1619,90726.7768,223826.2893,NA,86414.6672,NA,54913.4506,224966.1899,NA,50088.4681,NA,NA,New experiment,29,101899.5119,51,1024
55,NA,55,1972,1972,#3d3846,psycho,NA,0,undefined,undefined,0,left,0,0,0,0,0,0,0,51,NA,0,51,0,0,NA,NA,NA,0,NA,NA,NA,NA,NA,0,NA,51,0,51,0,0,0,0,51,0,0,0,NA,Fri Oct 27 18:34:39 2023,50,The main experiment item,yes,CogPsy_Assignment_With_Instruction.osexp,C:/Users/lukas/OneDrive/Dokumente/Uni/VU/P1/Cognitive Psych/Experiment,no,mono,no,18,no,white,no,Professional and Technical Occupations,yes,768,C:/Users/lukas/OneDrive/Dokumente/Uni/VU/P1/Cognitive Psych/Experiment/log_without/subject-1.csv,fake,Melodramatic Milgram,4.0.5,PurpleDenomination2,right,return,NA,return,return,NA,right,650.5527,3482.3355,NA,4295.5865,19551.3157,NA,650.5527,NA,NA,2,fake_2_50,1024,2,48000,-16,experiment,1,odd,50091.348,NA,37826.4876,58163.5326,NA,46724.1526,18223.9355,225081.9289,NA,NA,225585.9535,86430.715,18270.7707,NA,NA,NA,NA,NA,NA,NA,NA,NA,54916.5712,NA,225586.131,90726.7768,225076.8956,NA,86414.6672,NA,54913.4506,226237.3238,NA,50088.4681,NA,NA,New experiment,29,102550.0646,52,1024
56,NA,56,1949,1949,#3d3846,psycho,NA,1,undefined,undefined,1,left,0,0,0,0,0,0,0,52,NA,0,52,0,0,NA,NA,NA,0,NA,NA,NA,NA,NA,0,NA,52,0,52,0,0,0,0,52,0,0,0,NA,Fri Oct 27 18:34:39 2023,20,The main experiment item,yes,CogPsy_Assignment_With_Instruction.osexp,C:/Users/lukas/OneDrive/Dokumente/Uni/VU/P1/Cognitive Psych/Experiment,no,mono,no,18,no,white,no,Professional and Technical Occupations,yes,768,C:/Users/lukas/OneDrive/Dokumente/Uni/VU/P1/Cognitive Psych/Experiment/log_without/subject-1.csv,fake,Melodramatic Milgram,4.0.5,DullHologram,left,return,NA,return,return,NA,left,795.1231,3482.3355,NA,4295.5865,19551.3157,NA,795.1231,NA,NA,2,fake_20,1024,2,48000,-16,experiment,1,odd,50091.348,NA,37826.4876,58163.5326,NA,46724.1526,18223.9355,226348.6593,NA,NA,226853.2988,86430.715,18270.7707,NA,NA,NA,NA,NA,NA,NA,NA,NA,54916.5712,NA,226853.4195,90726.7768,226343.5893,NA,86414.6672,NA,54913.4506,227649.2065,NA,50088.4681,NA,NA,New experiment,30,103345.1877,53,1024
55,NA,55,1921,1921,#3d3846,psycho,NA,0,undefined,undefined,0,right,0,0,0,0,0,0,0,53,NA,0,53,0,0,NA,NA,NA,0,NA,NA,NA,NA,NA,0,NA,53,0,53,0,0,0,0,53,0,0,0,NA,Fri Oct 27 18:34:39 2023,20,The main experiment item,yes,CogPsy_Assignment_With_Instruction.osexp,C:/Users/lukas/OneDrive/Dokumente/Uni/VU/P1/Cognitive Psych/Experiment,no,mono,no,18,no,white,no,Professional and Technical Occupations,yes,768,C:/Users/lukas/OneDrive/Dokumente/Uni/VU/P1/Cognitive Psych/Experiment/log_without/subject-1.csv,real,Melodramatic Milgram,4.0.5,genuine,left,return,NA,return,return,NA,left,416.2315,3482.3355,NA,4295.5865,19551.3157,NA,416.2315,NA,NA,2,real_20,1024,2,48000,-16,experiment,1,odd,50091.348,NA,37826.4876,58163.5326,NA,46724.1526,18223.9355,227744.1807,NA,NA,228248.6531,86430.715,18270.7707,NA,NA,NA,NA,NA,NA,NA,NA,NA,54916.5712,NA,228248.7701,90726.7768,227739.6561,NA,86414.6672,NA,54913.4506,228665.6348,NA,50088.4681,NA,NA,New experiment,30,103761.4192,54,1024
55,NA,55,1921,1921,#3d3846,psycho,NA,0,undefined,undefined,0,right,0,0,0,0,0,0,0,53,NA,0,53,0,0,NA,NA,NA,0,NA,NA,NA,NA,NA,0,NA,53,0,53,0,0,0,0,53,0,0,0,NA,Fri Oct 27 18:34:39 2023,20,The main experiment item,yes,CogPsy_Assignment_With_Instruction.osexp,C:/Users/lukas/OneDrive/Dokumente/Uni/VU/P1/Cognitive Psych/Experiment,no,mono,no,18,no,white,no,,yes,768,C:/Users/lukas/OneDrive/Dokumente/Uni/VU/P1/Cognitive Psych/Experiment/log_without/subject-1.csv,real,Melodramatic Milgram,4.0.5,genuine,,return,NA,return,return,NA,left,416.2315,3482.3355,NA,4295.5865,19551.3157,NA,416.2315,NA,NA,2,real_20,1024,2,48000,-16,experiment,1,odd,50091.348,NA,37826.4876,58163.5326,NA,46724.1526,18223.9355,227744.1807,NA,NA,228248.6531,86430.715,18270.7707,NA,NA,NA,251250.3378,NA,NA,NA,NA,NA,54916.5712,NA,228248.7701,90726.7768,227739.6561,NA,86414.6672,228723.8453,54913.4506,228665.6348,NA,50088.4681,NA,NA,New experiment,30,103761.4192,54,1024
55,NA,55,1921,1921,#3d3846,psycho,NA,0,undefined,undefined,0,right,0,0,0,0,0,0,0,53,NA,0,53,0,0,NA,NA,NA,0,NA,NA,NA,NA,NA,0,NA,53,0,53,0,0,0,0,53,0,0,0,NA,Fri Oct 27 18:34:39 2023,20,The main experiment item,yes,CogPsy_Assignment_With_Instruction.osexp,C:/Users/lukas/OneDrive/Dokumente/Uni/VU/P1/Cognitive Psych/Experiment,no,mono,no,18,no,white,no,Ok,yes,768,C:/Users/lukas/OneDrive/Dokumente/Uni/VU/P1/Cognitive Psych/Experiment/log_without/subject-1.csv,real,Melodramatic Milgram,4.0.5,genuine,Silver strip (security thread);Colors of text;Watermark;Ink quality,return,NA,return,return,NA,left,416.2315,3482.3355,NA,4295.5865,19551.3157,NA,416.2315,NA,NA,2,real_20,1024,2,48000,-16,experiment,1,odd,50091.348,NA,37826.4876,58163.5326,NA,46724.1526,18223.9355,227744.1807,NA,NA,228248.6531,86430.715,18270.7707,NA,NA,NA,251250.3378,NA,NA,NA,NA,NA,54916.5712,NA,228248.7701,90726.7768,227739.6561,NA,86414.6672,228723.8453,54913.4506,228665.6348,NA,50088.4681,261906.1807,NA,New experiment,30,103761.4192,54,1024
