"acc","accept_status","accuracy","average_response_time","avg_rt","background","canvas_backend","checkbox_status","correct","correct_consent_sketchpad","correct_instruction_sketchpad","correct_new_keyboard_response","correct_response","count_age_form","count_checkbox_security_form","count_consent_sketchpad","count_country_logger","count_eurozone_form","count_eurozone_logger","count_experiment","count_fixation_dots","count_getting_started","count_goodbye_sketchpad","count_images_sketchpad","count_information_display_sketchpad","count_instruction_sketchpad","count_new_1_form_base","count_new_1_form_text_input","count_new_1_sketchpad","count_new_2_logger","count_new_4_form_multiple_choice","count_new_form_base","count_new_form_consent","count_new_form_multiple_choice","count_new_form_text_display","count_new_form_text_input","count_new_inline_script","count_new_keyboard_response","count_new_loop","count_new_sequence","count_occupation_form","count_occupation_logger","count_open_security_input_form","count_personal_data_logger","count_response_logger","count_schooling_level_form","count_schooling_logger","count_security_feature_logger","count_welcome","datetime","denomination","description","disable_garbage_collection","experiment_file","experiment_path","font_bold","font_family","font_italic","font_size","font_underline","foreground","form_clicks","form_response","fullscreen","height","logfile","note_type","opensesame_codename","opensesame_version","reason","response","response_consent_sketchpad","response_goodbye_sketchpad","response_information_display_sketchpad","response_instruction_sketchpad","response_new_1_sketchpad","response_new_keyboard_response","response_time","response_time_consent_sketchpad","response_time_goodbye_sketchpad","response_time_information_display_sketchpad","response_time_instruction_sketchpad","response_time_new_1_sketchpad","response_time_new_keyboard_response","response_time_welcome","response_welcome","round_decimals","show","sound_buf_size","sound_channels","sound_freq","sound_sample_size","start","subject_nr","subject_parity","time_age_form","time_checkbox_security_form","time_consent_sketchpad","time_country_logger","time_eurozone_form","time_eurozone_logger","time_experiment","time_fixation_dots","time_getting_started","time_goodbye_sketchpad","time_images_sketchpad","time_information_display_sketchpad","time_instruction_sketchpad","time_new_1_form_base","time_new_1_form_text_input","time_new_1_sketchpad","time_new_2_logger","time_new_4_form_multiple_choice","time_new_form_base","time_new_form_consent","time_new_form_multiple_choice","time_new_form_text_display","time_new_form_text_input","time_new_inline_script","time_new_keyboard_response","time_new_loop","time_new_sequence","time_occupation_form","time_occupation_logger","time_open_security_input_form","time_personal_data_logger","time_response_logger","time_schooling_level_form","time_schooling_logger","time_security_feature_logger","time_welcome","title","total_correct","total_response_time","total_responses","width"
"undefined","NA","undefined","undefined","undefined","#3d3846","psycho","NA","undefined","undefined","undefined","NA","NA","0","0","0","0","0","0","0","NA","NA","0","NA","NA","0","NA","NA","NA","0","NA","NA","NA","NA","NA","0","NA","NA","0","NA","0","0","0","0","NA","0","0","0","NA","Thu Oct 26 14:27:05 2023","NA","The main experiment item","yes","CogPsy_Assignment_With_Instruction.osexp","C:/Users/joaquincr/Desktop","no","mono","no","18","no","white","no","Yes","yes","768","C:/Users/joaquincr/Desktop/subject-52.csv","NA","Melodramatic Milgram","4.0.5","NA","Yes","right","NA","NA","right","NA","NA","5084.049100056291","5084.049100056291","NA","NA","11181.358799920417","NA","NA","NA","NA","2","NA","1024","2","48000","-16","experiment","52","even","NA","NA","72371.9121000031","NA","NA","82374.76390006486","61070.334600051865","NA","NA","NA","NA","NA","61184.92430006154","NA","NA","NA","NA","NA","NA","NA","NA","NA","NA","NA","NA","NA","NA","NA","NA","NA","NA","NA","NA","NA","NA","NA","New experiment","0","0","0","1024"
"undefined","NA","undefined","undefined","undefined","#3d3846","psycho","NA","undefined","undefined","undefined","NA","NA","0","0","0","0","0","0","0","NA","NA","0","NA","NA","0","NA","NA","NA","0","NA","NA","NA","NA","NA","0","NA","NA","0","NA","0","0","0","0","NA","0","0","0","NA","Thu Oct 26 14:27:05 2023","NA","The main experiment item","yes","CogPsy_Assignment_With_Instruction.osexp","C:/Users/joaquincr/Desktop","no","mono","no","18","no","white","no","Masters","yes","768","C:/Users/joaquincr/Desktop/subject-52.csv","NA","Melodramatic Milgram","4.0.5","NA","Masters","right","NA","NA","right","NA","NA","5084.049100056291","5084.049100056291","NA","NA","11181.358799920417","NA","NA","NA","NA","2","NA","1024","2","48000","-16","experiment","52","even","NA","NA","72371.9121000031","NA","NA","82374.76390006486","61070.334600051865","NA","NA","NA","NA","NA","61184.92430006154","NA","NA","NA","NA","NA","NA","NA","NA","NA","NA","NA","NA","NA","NA","NA","NA","NA","NA","NA","NA","87696.21379999444","NA","NA","New experiment","0","0","0","1024"
"undefined","NA","undefined","undefined","undefined","#3d3846","psycho","NA","undefined","undefined","undefined","NA","NA","0","0","0","0","0","0","0","NA","NA","0","NA","NA","0","NA","NA","NA","0","NA","NA","NA","NA","NA","0","NA","NA","0","NA","0","0","0","0","NA","0","0","0","NA","Thu Oct 26 14:27:05 2023","NA","The main experiment item","yes","CogPsy_Assignment_With_Instruction.osexp","C:/Users/joaquincr/Desktop","no","mono","no","18","no","white","no","34","yes","768","C:/Users/joaquincr/Desktop/subject-52.csv","NA","Melodramatic Milgram","4.0.5","NA","34","right","NA","NA","right","NA","NA","5084.049100056291","5084.049100056291","NA","NA","11181.358799920417","NA","NA","NA","NA","2","NA","1024","2","48000","-16","experiment","52","even","87699.92470007855","NA","72371.9121000031","NA","NA","82374.76390006486","61070.334600051865","NA","NA","NA","NA","NA","61184.92430006154","NA","NA","NA","NA","NA","NA","NA","NA","NA","NA","NA","NA","NA","NA","NA","NA","NA","102658.50580006372","NA","NA","87696.21379999444","NA","NA","New experiment","0","0","0","1024"
"undefined","NA","undefined","undefined","undefined","#3d3846","psycho","NA","undefined","undefined","undefined","NA","NA","0","0","0","0","0","0","0","NA","NA","0","NA","NA","0","NA","NA","NA","0","NA","NA","NA","NA","NA","0","NA","NA","0","NA","0","0","0","0","NA","0","0","0","NA","Thu Oct 26 14:27:05 2023","NA","The main experiment item","yes","CogPsy_Assignment_With_Instruction.osexp","C:/Users/joaquincr/Desktop","no","mono","no","18","no","white","no","dutch","yes","768","C:/Users/joaquincr/Desktop/subject-52.csv","NA","Melodramatic Milgram","4.0.5","NA","dutch","right","NA","NA","right","NA","NA","5084.049100056291","5084.049100056291","NA","NA","11181.358799920417","NA","NA","NA","NA","2","NA","1024","2","48000","-16","experiment","52","even","87699.92470007855","NA","72371.9121000031","111128.24270001147","NA","82374.76390006486","61070.334600051865","NA","NA","NA","NA","NA","61184.92430006154","NA","NA","NA","NA","NA","NA","NA","NA","NA","102664.69150001649","NA","NA","NA","NA","NA","NA","NA","102658.50580006372","NA","NA","87696.21379999444","NA","NA","New experiment","0","0","0","1024"
"undefined","NA","undefined","undefined","undefined","#3d3846","psycho","NA","undefined","undefined","undefined","NA","NA","0","0","0","0","0","0","0","NA","NA","0","NA","NA","0","NA","NA","NA","0","NA","NA","NA","NA","NA","0","NA","NA","0","NA","0","0","0","0","NA","0","0","0","NA","Thu Oct 26 14:27:05 2023","NA","The main experiment item","yes","CogPsy_Assignment_With_Instruction.osexp","C:/Users/joaquincr/Desktop","no","mono","no","18","no","white","no","Professional and Technical Occupations","yes","768","C:/Users/joaquincr/Desktop/subject-52.csv","NA","Melodramatic Milgram","4.0.5","NA","Professional and Technical Occupations","right","NA","NA","right","NA","NA","5084.049100056291","5084.049100056291","NA","NA","11181.358799920417","NA","NA","NA","NA","2","NA","1024","2","48000","-16","experiment","52","even","87699.92470007855","NA","72371.9121000031","111128.24270001147","NA","82374.76390006486","61070.334600051865","NA","NA","NA","NA","NA","61184.92430006154","NA","NA","NA","NA","NA","NA","NA","NA","NA","102664.69150001649","NA","NA","NA","NA","NA","120129.74150001537","NA","102658.50580006372","NA","NA","87696.21379999444","NA","NA","New experiment","0","0","0","1024"
"100","NA","100","6633","6633","#3d3846","psycho","NA","1","undefined","undefined","1","left","0","0","0","0","0","0","0","0","NA","0","0","NA","0","NA","NA","NA","0","NA","NA","NA","NA","NA","0","NA","0","0","0","0","0","0","0","0","0","0","0","NA","Thu Oct 26 14:27:05 2023","20","The main experiment item","yes","CogPsy_Assignment_With_Instruction.osexp","C:/Users/joaquincr/Desktop","no","mono","no","18","no","white","no","Professional and Technical Occupations","yes","768","C:/Users/joaquincr/Desktop/subject-52.csv","fake","Melodramatic Milgram","4.0.5","BrownDenomination","left","right","NA","NA","right","NA","left","6633.398599922657","5084.049100056291","NA","NA","11181.358799920417","NA","6633.398599922657","NA","NA","2","fake_20","1024","2","48000","-16","experiment","52","even","87699.92470007855","NA","72371.9121000031","111128.24270001147","NA","82374.76390006486","61070.334600051865","120382.12359999306","NA","NA","120892.42170006037","NA","61184.92430006154","NA","NA","NA","NA","NA","NA","NA","NA","NA","102664.69150001649","NA","120892.85200007726","120135.2611000184","120372.70180007908","NA","120129.74150001537","NA","102658.50580006372","127527.0717999665","NA","87696.21379999444","NA","NA","New experiment","1","6633.398599922657","1","1024"
"50","NA","50","5414","5414","#3d3846","psycho","NA","0","undefined","undefined","0","right","0","0","0","0","0","0","0","1","NA","0","1","NA","0","NA","NA","NA","0","NA","NA","NA","NA","NA","0","NA","1","0","1","0","0","0","0","1","0","0","0","NA","Thu Oct 26 14:27:05 2023","20","The main experiment item","yes","CogPsy_Assignment_With_Instruction.osexp","C:/Users/joaquincr/Desktop","no","mono","no","18","no","white","no","Professional and Technical Occupations","yes","768","C:/Users/joaquincr/Desktop/subject-52.csv","real","Melodramatic Milgram","4.0.5","genuine","left","right","NA","NA","right","NA","left","4194.845499936491","5084.049100056291","NA","NA","11181.358799920417","NA","4194.845499936491","NA","NA","2","real_20","1024","2","48000","-16","experiment","52","even","87699.92470007855","NA","72371.9121000031","111128.24270001147","NA","82374.76390006486","61070.334600051865","128340.62350005843","NA","NA","128851.03700007312","NA","61184.92430006154","NA","NA","NA","NA","NA","NA","NA","NA","NA","102664.69150001649","NA","128851.3827000279","120135.2611000184","128329.98070004396","NA","120129.74150001537","NA","102658.50580006372","133046.9247000292","NA","87696.21379999444","NA","NA","New experiment","1","10828.244099859148","2","1024"
"66","NA","66","4313","4313","#3d3846","psycho","NA","1","undefined","undefined","1","right","0","0","0","0","0","0","0","2","NA","0","2","NA","0","NA","NA","NA","0","NA","NA","NA","NA","NA","0","NA","2","0","2","0","0","0","0","2","0","0","0","NA","Thu Oct 26 14:27:05 2023","50","The main experiment item","yes","CogPsy_Assignment_With_Instruction.osexp","C:/Users/joaquincr/Desktop","no","mono","no","18","no","white","no","Professional and Technical Occupations","yes","768","C:/Users/joaquincr/Desktop/subject-52.csv","real","Melodramatic Milgram","4.0.5","photo","right","right","NA","NA","right","NA","right","2112.76180006098","5084.049100056291","NA","NA","11181.358799920417","NA","2112.76180006098","NA","NA","2","real_50","1024","2","48000","-16","experiment","52","even","87699.92470007855","NA","72371.9121000031","111128.24270001147","NA","82374.76390006486","61070.334600051865","133358.78350003622","NA","NA","133866.62069999147","NA","61184.92430006154","NA","NA","NA","NA","NA","NA","NA","NA","NA","102664.69150001649","NA","133866.94179999176","120135.2611000184","133347.13890007697","NA","120129.74150001537","NA","102658.50580006372","135980.5109000299","NA","87696.21379999444","NA","NA","New experiment","2","12941.005899920128","3","1024"
"75","NA","75","4264","4264","#3d3846","psycho","NA","1","undefined","undefined","1","left","0","0","0","0","0","0","0","3","NA","0","3","NA","0","NA","NA","NA","0","NA","NA","NA","NA","NA","0","NA","3","0","3","0","0","0","0","3","0","0","0","NA","Thu Oct 26 14:27:05 2023","20","The main experiment item","yes","CogPsy_Assignment_With_Instruction.osexp","C:/Users/joaquincr/Desktop","no","mono","no","18","no","white","no","Professional and Technical Occupations","yes","768","C:/Users/joaquincr/Desktop/subject-52.csv","fake","Melodramatic Milgram","4.0.5","BadInk","left","right","NA","NA","right","NA","left","4118.428400019184","5084.049100056291","NA","NA","11181.358799920417","NA","4118.428400019184","NA","NA","2","fake_20","1024","2","48000","-16","experiment","52","even","87699.92470007855","NA","72371.9121000031","111128.24270001147","NA","82374.76390006486","61070.334600051865","136266.0281000426","NA","NA","136774.7609000653","NA","61184.92430006154","NA","NA","NA","NA","NA","NA","NA","NA","NA","102664.69150001649","NA","136775.05980001297","120135.2611000184","136256.82060001418","NA","120129.74150001537","NA","102658.50580006372","140894.01449996512","NA","87696.21379999444","NA","NA","New experiment","3","17059.434299939312","4","1024"
"60","NA","60","4137","4137","#3d3846","psycho","NA","0","undefined","undefined","0","left","0","0","0","0","0","0","0","4","NA","0","4","NA","0","NA","NA","NA","0","NA","NA","NA","NA","NA","0","NA","4","0","4","0","0","0","0","4","0","0","0","NA","Thu Oct 26 14:27:05 2023","50","The main experiment item","yes","CogPsy_Assignment_With_Instruction.osexp","C:/Users/joaquincr/Desktop","no","mono","no","18","no","white","no","Professional and Technical Occupations","yes","768","C:/Users/joaquincr/Desktop/subject-52.csv","fake","Melodramatic Milgram","4.0.5","GreyDenomination","right","right","NA","NA","right","NA","right","3626.2614999432117","5084.049100056291","NA","NA","11181.358799920417","NA","3626.2614999432117","NA","NA","2","fake_2_50","1024","2","48000","-16","experiment","52","even","87699.92470007855","NA","72371.9121000031","111128.24270001147","NA","82374.76390006486","61070.334600051865","141152.0422999747","NA","NA","141657.11989998817","NA","61184.92430006154","NA","NA","NA","NA","NA","NA","NA","NA","NA","102664.69150001649","NA","141657.26220002398","120135.2611000184","141140.09630004875","NA","120129.74150001537","NA","102658.50580006372","145284.50150007848","NA","87696.21379999444","NA","NA","New experiment","3","20685.695799882524","5","1024"
"66","NA","66","4230","4230","#3d3846","psycho","NA","1","undefined","undefined","1","left","0","0","0","0","0","0","0","5","NA","0","5","NA","0","NA","NA","NA","0","NA","NA","NA","NA","NA","0","NA","5","0","5","0","0","0","0","5","0","0","0","NA","Thu Oct 26 14:27:05 2023","20","The main experiment item","yes","CogPsy_Assignment_With_Instruction.osexp","C:/Users/joaquincr/Desktop","no","mono","no","18","no","white","no","Professional and Technical Occupations","yes","768","C:/Users/joaquincr/Desktop/subject-52.csv","fake","Melodramatic Milgram","4.0.5","BadInk2","left","right","NA","NA","right","NA","left","4697.716200025752","5084.049100056291","NA","NA","11181.358799920417","NA","4697.716200025752","NA","NA","2","fake_20","1024","2","48000","-16","experiment","52","even","87699.92470007855","NA","72371.9121000031","111128.24270001147","NA","82374.76390006486","61070.334600051865","145571.4702999685","NA","NA","146078.39599996805","NA","61184.92430006154","NA","NA","NA","NA","NA","NA","NA","NA","NA","102664.69150001649","NA","146078.61910003703","120135.2611000184","145564.01740002912","NA","120129.74150001537","NA","102658.50580006372","150777.39689999726","NA","87696.21379999444","NA","NA","New experiment","4","25383.411999908276","6","1024"
"57","NA","57","3873","3873","#3d3846","psycho","NA","0","undefined","undefined","0","left","0","0","0","0","0","0","0","6","NA","0","6","NA","0","NA","NA","NA","0","NA","NA","NA","NA","NA","0","NA","6","0","6","0","0","0","0","6","0","0","0","NA","Thu Oct 26 14:27:05 2023","20","The main experiment item","yes","CogPsy_Assignment_With_Instruction.osexp","C:/Users/joaquincr/Desktop","no","mono","no","18","no","white","no","Professional and Technical Occupations","yes","768","C:/Users/joaquincr/Desktop/subject-52.csv","fake","Melodramatic Milgram","4.0.5","DullHologram2","right","right","NA","NA","right","NA","right","1728.9892999688163","5084.049100056291","NA","NA","11181.358799920417","NA","1728.9892999688163","NA","NA","2","fake_20","1024","2","48000","-16","experiment","52","even","87699.92470007855","NA","72371.9121000031","111128.24270001147","NA","82374.76390006486","61070.334600051865","151083.70399998967","NA","NA","151590.40139999706","NA","61184.92430006154","NA","NA","NA","NA","NA","NA","NA","NA","NA","102664.69150001649","NA","151590.60660004616","120135.2611000184","151071.03560003452","NA","120129.74150001537","NA","102658.50580006372","153320.596100064","NA","87696.21379999444","NA","NA","New experiment","4","27112.401299877092","7","1024"
"62","NA","62","4005","4005","#3d3846","psycho","NA","1","undefined","undefined","1","right","0","0","0","0","0","0","0","7","NA","0","7","NA","0","NA","NA","NA","0","NA","NA","NA","NA","NA","0","NA","7","0","7","0","0","0","0","7","0","0","0","NA","Thu Oct 26 14:27:05 2023","20","The main experiment item","yes","CogPsy_Assignment_With_Instruction.osexp","C:/Users/joaquincr/Desktop","no","mono","no","18","no","white","no","Professional and Technical Occupations","yes","768","C:/Users/joaquincr/Desktop/subject-52.csv","real","Melodramatic Milgram","4.0.5","genuine","right","right","NA","NA","right","NA","right","4933.882200042717","5084.049100056291","NA","NA","11181.358799920417","NA","4933.882200042717","NA","NA","2","real_20","1024","2","48000","-16","experiment","52","even","87699.92470007855","NA","72371.9121000031","111128.24270001147","NA","82374.76390006486","61070.334600051865","153558.3425000077","NA","NA","154066.9977000216","NA","61184.92430006154","NA","NA","NA","NA","NA","NA","NA","NA","NA","102664.69150001649","NA","154067.35879997723","120135.2611000184","153545.97039998043","NA","120129.74150001537","NA","102658.50580006372","159002.2333000088","NA","87696.21379999444","NA","NA","New experiment","5","32046.28349991981","8","1024"
"55","NA","55","4212","4212","#3d3846","psycho","NA","0","undefined","undefined","0","left","0","0","0","0","0","0","0","8","NA","0","8","NA","0","NA","NA","NA","0","NA","NA","NA","NA","NA","0","NA","8","0","8","0","0","0","0","8","0","0","0","NA","Thu Oct 26 14:27:05 2023","50","The main experiment item","yes","CogPsy_Assignment_With_Instruction.osexp","C:/Users/joaquincr/Desktop","no","mono","no","18","no","white","no","Professional and Technical Occupations","yes","768","C:/Users/joaquincr/Desktop/subject-52.csv","fake","Melodramatic Milgram","4.0.5","NoNumOnThread_BlurryWatermark","right","right","NA","NA","right","NA","right","5870.323800016195","5084.049100056291","NA","NA","11181.358799920417","NA","5870.323800016195","NA","NA","2","fake_2_50","1024","2","48000","-16","experiment","52","even","87699.92470007855","NA","72371.9121000031","111128.24270001147","NA","82374.76390006486","61070.334600051865","159260.76780003496","NA","NA","159768.37559998967","NA","61184.92430006154","NA","NA","NA","NA","NA","NA","NA","NA","NA","102664.69150001649","NA","159768.6402000254","120135.2611000184","159252.01220007148","NA","120129.74150001537","NA","102658.50580006372","165639.7283000406","NA","87696.21379999444","NA","NA","New experiment","5","37916.607299936004","9","1024"
"60","NA","60","4391","4391","#3d3846","psycho","NA","1","undefined","undefined","1","right","0","0","0","0","0","0","0","9","NA","0","9","NA","0","NA","NA","NA","0","NA","NA","NA","NA","NA","0","NA","9","0","9","0","0","0","0","9","0","0","0","NA","Thu Oct 26 14:27:05 2023","50","The main experiment item","yes","CogPsy_Assignment_With_Instruction.osexp","C:/Users/joaquincr/Desktop","no","mono","no","18","no","white","no","Professional and Technical Occupations","yes","768","C:/Users/joaquincr/Desktop/subject-52.csv","real","Melodramatic Milgram","4.0.5","genuine","right","right","NA","NA","right","NA","right","5995.146899949759","5084.049100056291","NA","NA","11181.358799920417","NA","5995.146899949759","NA","NA","2","real_50","1024","2","48000","-16","experiment","52","even","87699.92470007855","NA","72371.9121000031","111128.24270001147","NA","82374.76390006486","61070.334600051865","165892.00230001006","NA","NA","166400.03420005087","NA","61184.92430006154","NA","NA","NA","NA","NA","NA","NA","NA","NA","102664.69150001649","NA","166400.2442000201","120135.2611000184","165882.2221000446","NA","120129.74150001537","NA","102658.50580006372","172396.3078999659","NA","87696.21379999444","NA","NA","New experiment","6","43911.75419988576","10","1024"
"63","NA","63","4672","4672","#3d3846","psycho","NA","1","undefined","undefined","1","right","0","0","0","0","0","0","0","10","NA","0","10","NA","0","NA","NA","NA","0","NA","NA","NA","NA","NA","0","NA","10","0","10","0","0","0","0","10","0","0","0","NA","Thu Oct 26 14:27:05 2023","20","The main experiment item","yes","CogPsy_Assignment_With_Instruction.osexp","C:/Users/joaquincr/Desktop","no","mono","no","18","no","white","no","Professional and Technical Occupations","yes","768","C:/Users/joaquincr/Desktop/subject-52.csv","real","Melodramatic Milgram","4.0.5","genuine","right","right","NA","NA","right","NA","right","7485.26149999816","5084.049100056291","NA","NA","11181.358799920417","NA","7485.26149999816","NA","NA","2","real_20","1024","2","48000","-16","experiment","52","even","87699.92470007855","NA","72371.9121000031","111128.24270001147","NA","82374.76390006486","61070.334600051865","172681.1558000045","NA","NA","173189.54449996818","NA","61184.92430006154","NA","NA","NA","NA","NA","NA","NA","NA","NA","102664.69150001649","NA","173189.80020005256","120135.2611000184","172662.96670003794","NA","120129.74150001537","NA","102658.50580006372","180675.87200005073","NA","87696.21379999444","NA","NA","New experiment","7","51397.01569988392","11","1024"
"66","NA","66","4787","4787","#3d3846","psycho","NA","1","undefined","undefined","1","left","0","0","0","0","0","0","0","11","NA","0","11","NA","0","NA","NA","NA","0","NA","NA","NA","NA","NA","0","NA","11","0","11","0","0","0","0","11","0","0","0","NA","Thu Oct 26 14:27:05 2023","20","The main experiment item","yes","CogPsy_Assignment_With_Instruction.osexp","C:/Users/joaquincr/Desktop","no","mono","no","18","no","white","no","Professional and Technical Occupations","yes","768","C:/Users/joaquincr/Desktop/subject-52.csv","fake","Melodramatic Milgram","4.0.5","DullHologram","left","right","NA","NA","right","NA","left","6058.192900032736","5084.049100056291","NA","NA","11181.358799920417","NA","6058.192900032736","NA","NA","2","fake_20","1024","2","48000","-16","experiment","52","even","87699.92470007855","NA","72371.9121000031","111128.24270001147","NA","82374.76390006486","61070.334600051865","180941.33970001712","NA","NA","181448.7150000641","NA","61184.92430006154","NA","NA","NA","NA","NA","NA","NA","NA","NA","102664.69150001649","NA","181448.95450002514","120135.2611000184","180933.00710001495","NA","120129.74150001537","NA","102658.50580006372","187507.9996000277","NA","87696.21379999444","NA","NA","New experiment","8","57455.20859991666","12","1024"
"69","NA","69","4586","4586","#3d3846","psycho","NA","1","undefined","undefined","1","right","0","0","0","0","0","0","0","12","NA","0","12","NA","0","NA","NA","NA","0","NA","NA","NA","NA","NA","0","NA","12","0","12","0","0","0","0","12","0","0","0","NA","Thu Oct 26 14:27:05 2023","20","The main experiment item","yes","CogPsy_Assignment_With_Instruction.osexp","C:/Users/joaquincr/Desktop","no","mono","no","18","no","white","no","Professional and Technical Occupations","yes","768","C:/Users/joaquincr/Desktop/subject-52.csv","real","Melodramatic Milgram","4.0.5","photo","right","right","NA","NA","right","NA","right","2175.019200076349","5084.049100056291","NA","NA","11181.358799920417","NA","2175.019200076349","NA","NA","2","real_20","1024","2","48000","-16","experiment","52","even","87699.92470007855","NA","72371.9121000031","111128.24270001147","NA","82374.76390006486","61070.334600051865","187817.27320002392","NA","NA","188323.25120002497","NA","61184.92430006154","NA","NA","NA","NA","NA","NA","NA","NA","NA","102664.69150001649","NA","188323.46139999572","120135.2611000184","187806.92120001186","NA","120129.74150001537","NA","102658.50580006372","190499.2554000346","NA","87696.21379999444","NA","NA","New experiment","9","59630.22779999301","13","1024"
"71","NA","71","4445","4445","#3d3846","psycho","NA","1","undefined","undefined","1","left","0","0","0","0","0","0","0","13","NA","0","13","NA","0","NA","NA","NA","0","NA","NA","NA","NA","NA","0","NA","13","0","13","0","0","0","0","13","0","0","0","NA","Thu Oct 26 14:27:05 2023","20","The main experiment item","yes","CogPsy_Assignment_With_Instruction.osexp","C:/Users/joaquincr/Desktop","no","mono","no","18","no","white","no","Professional and Technical Occupations","yes","768","C:/Users/joaquincr/Desktop/subject-52.csv","fake","Melodramatic Milgram","4.0.5","BadInk2","left","right","NA","NA","right","NA","left","2608.5541000356898","5084.049100056291","NA","NA","11181.358799920417","NA","2608.5541000356898","NA","NA","2","fake_20","1024","2","48000","-16","experiment","52","even","87699.92470007855","NA","72371.9121000031","111128.24270001147","NA","82374.76390006486","61070.334600051865","190727.7560000075","NA","NA","191234.21660007443","NA","61184.92430006154","NA","NA","NA","NA","NA","NA","NA","NA","NA","102664.69150001649","NA","191234.43539999425","120135.2611000184","190718.96279999055","NA","120129.74150001537","NA","102658.50580006372","193843.58770004474","NA","87696.21379999444","NA","NA","New experiment","10","62238.7819000287","14","1024"
"73","NA","73","4922","4922","#3d3846","psycho","NA","1","undefined","undefined","1","right","0","0","0","0","0","0","0","14","NA","0","14","NA","0","NA","NA","NA","0","NA","NA","NA","NA","NA","0","NA","14","0","14","0","0","0","0","14","0","0","0","NA","Thu Oct 26 14:27:05 2023","50","The main experiment item","yes","CogPsy_Assignment_With_Instruction.osexp","C:/Users/joaquincr/Desktop","no","mono","no","18","no","white","no","Professional and Technical Occupations","yes","768","C:/Users/joaquincr/Desktop/subject-52.csv","real","Melodramatic Milgram","4.0.5","genuine","right","right","NA","NA","right","NA","right","11596.752700046636","5084.049100056291","NA","NA","11181.358799920417","NA","11596.752700046636","NA","NA","2","real_20","1024","2","48000","-16","experiment","52","even","87699.92470007855","NA","72371.9121000031","111128.24270001147","NA","82374.76390006486","61070.334600051865","194047.47350001708","NA","NA","194555.268600001","NA","61184.92430006154","NA","NA","NA","NA","NA","NA","NA","NA","NA","102664.69150001649","NA","194555.53979997057","120135.2611000184","194034.87149998546","NA","120129.74150001537","NA","102658.50580006372","206152.854999993","NA","87696.21379999444","NA","NA","New experiment","11","73835.53460007533","15","1024"
"68","NA","68","4983","4983","#3d3846","psycho","NA","0","undefined","undefined","0","right","0","0","0","0","0","0","0","15","NA","0","15","NA","0","NA","NA","NA","0","NA","NA","NA","NA","NA","0","NA","15","0","15","0","0","0","0","15","0","0","0","NA","Thu Oct 26 14:27:05 2023","50","The main experiment item","yes","CogPsy_Assignment_With_Instruction.osexp","C:/Users/joaquincr/Desktop","no","mono","no","18","no","white","no","Professional and Technical Occupations","yes","768","C:/Users/joaquincr/Desktop/subject-52.csv","real","Melodramatic Milgram","4.0.5","genuine","left","right","NA","NA","right","NA","left","5892.975899972953","5084.049100056291","NA","NA","11181.358799920417","NA","5892.975899972953","NA","NA","2","real_50","1024","2","48000","-16","experiment","52","even","87699.92470007855","NA","72371.9121000031","111128.24270001147","NA","82374.76390006486","61070.334600051865","206324.7468000045","NA","NA","206830.138899968","NA","61184.92430006154","NA","NA","NA","NA","NA","NA","NA","NA","NA","102664.69150001649","NA","206830.31830005348","120135.2611000184","206316.88679999206","NA","120129.74150001537","NA","102658.50580006372","212724.16390001308","NA","87696.21379999444","NA","NA","New experiment","11","79728.51050004829","16","1024"
"70","NA","70","5164","5164","#3d3846","psycho","NA","1","undefined","undefined","1","right","0","0","0","0","0","0","0","16","NA","0","16","NA","0","NA","NA","NA","0","NA","NA","NA","NA","NA","0","NA","16","0","16","0","0","0","0","16","0","0","0","NA","Thu Oct 26 14:27:05 2023","50","The main experiment item","yes","CogPsy_Assignment_With_Instruction.osexp","C:/Users/joaquincr/Desktop","no","mono","no","18","no","white","no","Professional and Technical Occupations","yes","768","C:/Users/joaquincr/Desktop/subject-52.csv","real","Melodramatic Milgram","4.0.5","photo","right","right","NA","NA","right","NA","right","8069.862499949522","5084.049100056291","NA","NA","11181.358799920417","NA","8069.862499949522","NA","NA","2","real_50","1024","2","48000","-16","experiment","52","even","87699.92470007855","NA","72371.9121000031","111128.24270001147","NA","82374.76390006486","61070.334600051865","213041.93170007784","NA","NA","213551.59250006545","NA","61184.92430006154","NA","NA","NA","NA","NA","NA","NA","NA","NA","102664.69150001649","NA","213551.92340002395","120135.2611000184","213033.2898000488","NA","120129.74150001537","NA","102658.50580006372","221622.45160003658","NA","87696.21379999444","NA","NA","New experiment","12","87798.37299999781","17","1024"
"72","NA","72","5101","5101","#3d3846","psycho","NA","1","undefined","undefined","1","right","0","0","0","0","0","0","0","17","NA","0","17","NA","0","NA","NA","NA","0","NA","NA","NA","NA","NA","0","NA","17","0","17","0","0","0","0","17","0","0","0","NA","Thu Oct 26 14:27:05 2023","50","The main experiment item","yes","CogPsy_Assignment_With_Instruction.osexp","C:/Users/joaquincr/Desktop","no","mono","no","18","no","white","no","Professional and Technical Occupations","yes","768","C:/Users/joaquincr/Desktop/subject-52.csv","real","Melodramatic Milgram","4.0.5","genuine","right","right","NA","NA","right","NA","right","4027.793399989605","5084.049100056291","NA","NA","11181.358799920417","NA","4027.793399989605","NA","NA","2","real_20","1024","2","48000","-16","experiment","52","even","87699.92470007855","NA","72371.9121000031","111128.24270001147","NA","82374.76390006486","61070.334600051865","221805.550100049","NA","NA","222312.56460002623","NA","61184.92430006154","NA","NA","NA","NA","NA","NA","NA","NA","NA","102664.69150001649","NA","222312.83980002627","120135.2611000184","221795.42290000245","NA","120129.74150001537","NA","102658.50580006372","226341.8621000601","NA","87696.21379999444","NA","NA","New experiment","13","91826.16639998741","18","1024"
"68","NA","68","4990","4990","#3d3846","psycho","NA","0","undefined","undefined","0","left","0","0","0","0","0","0","0","18","NA","0","18","NA","0","NA","NA","NA","0","NA","NA","NA","NA","NA","0","NA","18","0","18","0","0","0","0","18","0","0","0","NA","Thu Oct 26 14:27:05 2023","50","The main experiment item","yes","CogPsy_Assignment_With_Instruction.osexp","C:/Users/joaquincr/Desktop","no","mono","no","18","no","white","no","Professional and Technical Occupations","yes","768","C:/Users/joaquincr/Desktop/subject-52.csv","fake","Melodramatic Milgram","4.0.5","PurpleDenomination2","right","right","NA","NA","right","NA","right","3000.7963998941705","5084.049100056291","NA","NA","11181.358799920417","NA","3000.7963998941705","NA","NA","2","fake_2_50","1024","2","48000","-16","experiment","52","even","87699.92470007855","NA","72371.9121000031","111128.24270001147","NA","82374.76390006486","61070.334600051865","226610.2234000573","NA","NA","227116.2758000428","NA","61184.92430006154","NA","NA","NA","NA","NA","NA","NA","NA","NA","102664.69150001649","NA","227116.47800006904","120135.2611000184","226600.52510001697","NA","120129.74150001537","NA","102658.50580006372","230117.87479999475","NA","87696.21379999444","NA","NA","New experiment","13","94826.96279988158","19","1024"
"70","NA","70","4987","4987","#3d3846","psycho","NA","1","undefined","undefined","1","right","0","0","0","0","0","0","0","19","NA","0","19","NA","0","NA","NA","NA","0","NA","NA","NA","NA","NA","0","NA","19","0","19","0","0","0","0","19","0","0","0","NA","Thu Oct 26 14:27:05 2023","50","The main experiment item","yes","CogPsy_Assignment_With_Instruction.osexp","C:/Users/joaquincr/Desktop","no","mono","no","18","no","white","no","Professional and Technical Occupations","yes","768","C:/Users/joaquincr/Desktop/subject-52.csv","real","Melodramatic Milgram","4.0.5","photo_2","right","right","NA","NA","right","NA","right","4916.902999975719","5084.049100056291","NA","NA","11181.358799920417","NA","4916.902999975719","NA","NA","2","real_50","1024","2","48000","-16","experiment","52","even","87699.92470007855","NA","72371.9121000031","111128.24270001147","NA","82374.76390006486","61070.334600051865","230353.78130001482","NA","NA","230859.94100000244","NA","61184.92430006154","NA","NA","NA","NA","NA","NA","NA","NA","NA","102664.69150001649","NA","230860.18409999087","120135.2611000184","230344.08780001104","NA","120129.74150001537","NA","102658.50580006372","235778.06340006646","NA","87696.21379999444","NA","NA","New experiment","14","99743.8657998573","20","1024"
"71","NA","71","4999","4999","#3d3846","psycho","NA","1","undefined","undefined","1","right","0","0","0","0","0","0","0","20","NA","0","20","NA","0","NA","NA","NA","0","NA","NA","NA","NA","NA","0","NA","20","0","20","0","0","0","0","20","0","0","0","NA","Thu Oct 26 14:27:05 2023","50","The main experiment item","yes","CogPsy_Assignment_With_Instruction.osexp","C:/Users/joaquincr/Desktop","no","mono","no","18","no","white","no","Professional and Technical Occupations","yes","768","C:/Users/joaquincr/Desktop/subject-52.csv","real","Melodramatic Milgram","4.0.5","photo","right","right","NA","NA","right","NA","right","5242.894700029865","5084.049100056291","NA","NA","11181.358799920417","NA","5242.894700029865","NA","NA","2","real_50","1024","2","48000","-16","experiment","52","even","87699.92470007855","NA","72371.9121000031","111128.24270001147","NA","82374.76390006486","61070.334600051865","236020.5517000286","NA","NA","236526.945300051","NA","61184.92430006154","NA","NA","NA","NA","NA","NA","NA","NA","NA","102664.69150001649","NA","236527.16609998606","120135.2611000184","236010.4108999949","NA","120129.74150001537","NA","102658.50580006372","241770.81750007346","NA","87696.21379999444","NA","NA","New experiment","15","104986.76049988717","21","1024"
"68","NA","68","6420","6420","#3d3846","psycho","NA","0","undefined","undefined","0","left","0","0","0","0","0","0","0","21","NA","0","21","NA","0","NA","NA","NA","0","NA","NA","NA","NA","NA","0","NA","21","0","21","0","0","0","0","21","0","0","0","NA","Thu Oct 26 14:27:05 2023","20","The main experiment item","yes","CogPsy_Assignment_With_Instruction.osexp","C:/Users/joaquincr/Desktop","no","mono","no","18","no","white","no","Professional and Technical Occupations","yes","768","C:/Users/joaquincr/Desktop/subject-52.csv","fake","Melodramatic Milgram","4.0.5","BrownDenomination","right","right","NA","NA","right","NA","right","36264.53460007906","5084.049100056291","NA","NA","11181.358799920417","NA","36264.53460007906","NA","NA","2","fake_20","1024","2","48000","-16","experiment","52","even","87699.92470007855","NA","72371.9121000031","111128.24270001147","NA","82374.76390006486","61070.334600051865","242027.9276999645","NA","NA","242535.2432000218","NA","61184.92430006154","NA","NA","NA","NA","NA","NA","NA","NA","NA","102664.69150001649","NA","242535.48089996912","120135.2611000184","242019.50659998693","NA","120129.74150001537","NA","102658.50580006372","278801.07759998646","NA","87696.21379999444","NA","NA","New experiment","15","141251.29509996623","22","1024"
"69","NA","69","6240","6240","#3d3846","psycho","NA","1","undefined","undefined","1","left","0","0","0","0","0","0","0","22","NA","0","22","NA","0","NA","NA","NA","0","NA","NA","NA","NA","NA","0","NA","22","0","22","0","0","0","0","22","0","0","0","NA","Thu Oct 26 14:27:05 2023","20","The main experiment item","yes","CogPsy_Assignment_With_Instruction.osexp","C:/Users/joaquincr/Desktop","no","mono","no","18","no","white","no","Professional and Technical Occupations","yes","768","C:/Users/joaquincr/Desktop/subject-52.csv","fake","Melodramatic Milgram","4.0.5","NoNumOnThread_BlurryWatermark","left","right","NA","NA","right","NA","left","2283.8698000414297","5084.049100056291","NA","NA","11181.358799920417","NA","2283.8698000414297","NA","NA","2","fake_20","1024","2","48000","-16","experiment","52","even","87699.92470007855","NA","72371.9121000031","111128.24270001147","NA","82374.76390006486","61070.334600051865","279152.12220000103","NA","NA","279657.9535000492","NA","61184.92430006154","NA","NA","NA","NA","NA","NA","NA","NA","NA","102664.69150001649","NA","279658.1259999657","120135.2611000184","279142.437600065","NA","120129.74150001537","NA","102658.50580006372","281943.0750000756","NA","87696.21379999444","NA","NA","New experiment","16","143535.16490000766","23","1024"
"66","NA","66","6158","6158","#3d3846","psycho","NA","0","undefined","undefined","0","right","0","0","0","0","0","0","0","23","NA","0","23","NA","0","NA","NA","NA","0","NA","NA","NA","NA","NA","0","NA","23","0","23","0","0","0","0","23","0","0","0","NA","Thu Oct 26 14:27:05 2023","20","The main experiment item","yes","CogPsy_Assignment_With_Instruction.osexp","C:/Users/joaquincr/Desktop","no","mono","no","18","no","white","no","Professional and Technical Occupations","yes","768","C:/Users/joaquincr/Desktop/subject-52.csv","real","Melodramatic Milgram","4.0.5","photo","left","right","NA","NA","right","NA","left","4275.506300036795","5084.049100056291","NA","NA","11181.358799920417","NA","4275.506300036795","NA","NA","2","real_20","1024","2","48000","-16","experiment","52","even","87699.92470007855","NA","72371.9121000031","111128.24270001147","NA","82374.76390006486","61070.334600051865","282274.22080002725","NA","NA","282779.48410005774","NA","61184.92430006154","NA","NA","NA","NA","NA","NA","NA","NA","NA","102664.69150001649","NA","282779.663000023","120135.2611000184","282262.3570000287","NA","120129.74150001537","NA","102658.50580006372","287055.8107000543","NA","87696.21379999444","NA","NA","New experiment","16","147810.67120004445","24","1024"
"68","NA","68","6211","6211","#3d3846","psycho","NA","1","undefined","undefined","1","left","0","0","0","0","0","0","0","24","NA","0","24","NA","0","NA","NA","NA","0","NA","NA","NA","NA","NA","0","NA","24","0","24","0","0","0","0","24","0","0","0","NA","Thu Oct 26 14:27:05 2023","50","The main experiment item","yes","CogPsy_Assignment_With_Instruction.osexp","C:/Users/joaquincr/Desktop","no","mono","no","18","no","white","no","Professional and Technical Occupations","yes","768","C:/Users/joaquincr/Desktop/subject-52.csv","fake","Melodramatic Milgram","4.0.5","silver_strip","left","right","NA","NA","right","NA","left","7473.691200022586","5084.049100056291","NA","NA","11181.358799920417","NA","7473.691200022586","NA","NA","2","fake_2_50","1024","2","48000","-16","experiment","52","even","87699.92470007855","NA","72371.9121000031","111128.24270001147","NA","82374.76390006486","61070.334600051865","287264.7667999845","NA","NA","287773.7785000354","NA","61184.92430006154","NA","NA","NA","NA","NA","NA","NA","NA","NA","102664.69150001649","NA","287774.0617999807","120135.2611000184","287256.1655000318","NA","120129.74150001537","NA","102658.50580006372","295248.338000034","NA","87696.21379999444","NA","NA","New experiment","17","155284.36240006704","25","1024"
"65","NA","65","6035","6035","#3d3846","psycho","NA","0","undefined","undefined","0","left","0","0","0","0","0","0","0","25","NA","0","25","NA","0","NA","NA","NA","0","NA","NA","NA","NA","NA","0","NA","25","0","25","0","0","0","0","25","0","0","0","NA","Thu Oct 26 14:27:05 2023","20","The main experiment item","yes","CogPsy_Assignment_With_Instruction.osexp","C:/Users/joaquincr/Desktop","no","mono","no","18","no","white","no","Professional and Technical Occupations","yes","768","C:/Users/joaquincr/Desktop/subject-52.csv","fake","Melodramatic Milgram","4.0.5","DullHologram","right","right","NA","NA","right","NA","right","1639.6619998849928","5084.049100056291","NA","NA","11181.358799920417","NA","1639.6619998849928","NA","NA","2","fake_20","1024","2","48000","-16","experiment","52","even","87699.92470007855","NA","72371.9121000031","111128.24270001147","NA","82374.76390006486","61070.334600051865","295472.3642000463","NA","NA","295978.2857999671","NA","61184.92430006154","NA","NA","NA","NA","NA","NA","NA","NA","NA","102664.69150001649","NA","295978.45340007916","120135.2611000184","295464.02469999157","NA","120129.74150001537","NA","102658.50580006372","297618.8657999737","NA","87696.21379999444","NA","NA","New experiment","17","156924.02439995203","26","1024"
"66","NA","66","5883","5883","#3d3846","psycho","NA","1","undefined","undefined","1","left","0","0","0","0","0","0","0","26","NA","0","26","NA","0","NA","NA","NA","0","NA","NA","NA","NA","NA","0","NA","26","0","26","0","0","0","0","26","0","0","0","NA","Thu Oct 26 14:27:05 2023","20","The main experiment item","yes","CogPsy_Assignment_With_Instruction.osexp","C:/Users/joaquincr/Desktop","no","mono","no","18","no","white","no","Professional and Technical Occupations","yes","768","C:/Users/joaquincr/Desktop/subject-52.csv","fake","Melodramatic Milgram","4.0.5","bottom_left","left","right","NA","NA","right","NA","left","1922.7443999843672","5084.049100056291","NA","NA","11181.358799920417","NA","1922.7443999843672","NA","NA","2","fake_1_20","1024","2","48000","-16","experiment","52","even","87699.92470007855","NA","72371.9121000031","111128.24270001147","NA","82374.76390006486","61070.334600051865","297816.71789998654","NA","NA","298323.5414000228","NA","61184.92430006154","NA","NA","NA","NA","NA","NA","NA","NA","NA","102664.69150001649","NA","298323.7369999988","120135.2611000184","297806.03560002055","NA","120129.74150001537","NA","102658.50580006372","300247.44389997795","NA","87696.21379999444","NA","NA","New experiment","18","158846.7687999364","27","1024"
"64","NA","64","5777","5777","#3d3846","psycho","NA","0","undefined","undefined","0","left","0","0","0","0","0","0","0","27","NA","0","27","NA","0","NA","NA","NA","0","NA","NA","NA","NA","NA","0","NA","27","0","27","0","0","0","0","27","0","0","0","NA","Thu Oct 26 14:27:05 2023","50","The main experiment item","yes","CogPsy_Assignment_With_Instruction.osexp","C:/Users/joaquincr/Desktop","no","mono","no","18","no","white","no","Professional and Technical Occupations","yes","768","C:/Users/joaquincr/Desktop/subject-52.csv","fake","Melodramatic Milgram","4.0.5","PurpleDenomination2","right","right","NA","NA","right","NA","right","2913.2113999221474","5084.049100056291","NA","NA","11181.358799920417","NA","2913.2113999221474","NA","NA","2","fake_2_50","1024","2","48000","-16","experiment","52","even","87699.92470007855","NA","72371.9121000031","111128.24270001147","NA","82374.76390006486","61070.334600051865","300481.1618999811","NA","NA","300987.1178000467","NA","61184.92430006154","NA","NA","NA","NA","NA","NA","NA","NA","NA","102664.69150001649","NA","300987.3351000715","120135.2611000184","300471.68050007895","NA","120129.74150001537","NA","102658.50580006372","303901.37730003335","NA","87696.21379999444","NA","NA","New experiment","18","161759.98019985855","28","1024"
"62","NA","62","5863","5863","#3d3846","psycho","NA","0","undefined","undefined","0","left","0","0","0","0","0","0","0","28","NA","0","28","NA","0","NA","NA","NA","0","NA","NA","NA","NA","NA","0","NA","28","0","28","0","0","0","0","28","0","0","0","NA","Thu Oct 26 14:27:05 2023","20","The main experiment item","yes","CogPsy_Assignment_With_Instruction.osexp","C:/Users/joaquincr/Desktop","no","mono","no","18","no","white","no","Professional and Technical Occupations","yes","768","C:/Users/joaquincr/Desktop/subject-52.csv","fake","Melodramatic Milgram","4.0.5","silver_strip","right","right","NA","NA","right","NA","right","8295.483099995181","5084.049100056291","NA","NA","11181.358799920417","NA","8295.483099995181","NA","NA","2","fake_2_20","1024","2","48000","-16","experiment","52","even","87699.92470007855","NA","72371.9121000031","111128.24270001147","NA","82374.76390006486","61070.334600051865","304269.0218000207","NA","NA","304774.9862000346","NA","61184.92430006154","NA","NA","NA","NA","NA","NA","NA","NA","NA","102664.69150001649","NA","304775.1918999711","120135.2611000184","304260.0225000642","NA","120129.74150001537","NA","102658.50580006372","313071.6886000009","NA","87696.21379999444","NA","NA","New experiment","18","170055.46329985373","29","1024"
"63","NA","63","5803","5803","#3d3846","psycho","NA","1","undefined","undefined","1","left","0","0","0","0","0","0","0","29","NA","0","29","NA","0","NA","NA","NA","0","NA","NA","NA","NA","NA","0","NA","29","0","29","0","0","0","0","29","0","0","0","NA","Thu Oct 26 14:27:05 2023","50","The main experiment item","yes","CogPsy_Assignment_With_Instruction.osexp","C:/Users/joaquincr/Desktop","no","mono","no","18","no","white","no","Professional and Technical Occupations","yes","768","C:/Users/joaquincr/Desktop/subject-52.csv","fake","Melodramatic Milgram","4.0.5","BadInk","left","right","NA","NA","right","NA","left","4036.83999995701","5084.049100056291","NA","NA","11181.358799920417","NA","4036.83999995701","NA","NA","2","fake_2_50","1024","2","48000","-16","experiment","52","even","87699.92470007855","NA","72371.9121000031","111128.24270001147","NA","82374.76390006486","61070.334600051865","313355.53719999734","NA","NA","313862.1022000443","NA","61184.92430006154","NA","NA","NA","NA","NA","NA","NA","NA","NA","102664.69150001649","NA","313862.3768000398","120135.2611000184","313347.5448000245","NA","120129.74150001537","NA","102658.50580006372","317900.63220006414","NA","87696.21379999444","NA","NA","New experiment","19","174092.30329981074","30","1024"
"61","NA","61","5807","5807","#3d3846","psycho","NA","0","undefined","undefined","0","left","0","0","0","0","0","0","0","30","NA","0","30","NA","0","NA","NA","NA","0","NA","NA","NA","NA","NA","0","NA","30","0","30","0","0","0","0","30","0","0","0","NA","Thu Oct 26 14:27:05 2023","50","The main experiment item","yes","CogPsy_Assignment_With_Instruction.osexp","C:/Users/joaquincr/Desktop","no","mono","no","18","no","white","no","Professional and Technical Occupations","yes","768","C:/Users/joaquincr/Desktop/subject-52.csv","fake","Melodramatic Milgram","4.0.5","PurpleDenomination","right","right","NA","NA","right","NA","right","5949.101199978031","5084.049100056291","NA","NA","11181.358799920417","NA","5949.101199978031","NA","NA","2","fake_2_50","1024","2","48000","-16","experiment","52","even","87699.92470007855","NA","72371.9121000031","111128.24270001147","NA","82374.76390006486","61070.334600051865","318120.43910007924","NA","NA","318627.36769998446","NA","61184.92430006154","NA","NA","NA","NA","NA","NA","NA","NA","NA","102664.69150001649","NA","318627.6240000734","120135.2611000184","318112.6675000414","NA","120129.74150001537","NA","102658.50580006372","324577.7076999657","NA","87696.21379999444","NA","NA","New experiment","19","180041.40449978877","31","1024"
"62","NA","62","5842","5842","#3d3846","psycho","NA","1","undefined","undefined","1","right","0","0","0","0","0","0","0","31","NA","0","31","NA","0","NA","NA","NA","0","NA","NA","NA","NA","NA","0","NA","31","0","31","0","0","0","0","31","0","0","0","NA","Thu Oct 26 14:27:05 2023","20","The main experiment item","yes","CogPsy_Assignment_With_Instruction.osexp","C:/Users/joaquincr/Desktop","no","mono","no","18","no","white","no","Professional and Technical Occupations","yes","768","C:/Users/joaquincr/Desktop/subject-52.csv","real","Melodramatic Milgram","4.0.5","genuine","right","right","NA","NA","right","NA","right","6932.709600077942","5084.049100056291","NA","NA","11181.358799920417","NA","6932.709600077942","NA","NA","2","real_20","1024","2","48000","-16","experiment","52","even","87699.92470007855","NA","72371.9121000031","111128.24270001147","NA","82374.76390006486","61070.334600051865","324810.7202000683","NA","NA","325316.29200000316","NA","61184.92430006154","NA","NA","NA","NA","NA","NA","NA","NA","NA","102664.69150001649","NA","325316.4742999943","120135.2611000184","324801.5440000454","NA","120129.74150001537","NA","102658.50580006372","332250.0008000061","NA","87696.21379999444","NA","NA","New experiment","20","186974.1140998667","32","1024"
"63","NA","63","5793","5793","#3d3846","psycho","NA","1","undefined","undefined","1","left","0","0","0","0","0","0","0","32","NA","0","32","NA","0","NA","NA","NA","0","NA","NA","NA","NA","NA","0","NA","32","0","32","0","0","0","0","32","0","0","0","NA","Thu Oct 26 14:27:05 2023","50","The main experiment item","yes","CogPsy_Assignment_With_Instruction.osexp","C:/Users/joaquincr/Desktop","no","mono","no","18","no","white","no","Professional and Technical Occupations","yes","768","C:/Users/joaquincr/Desktop/subject-52.csv","fake","Melodramatic Milgram","4.0.5","bottom_left","left","right","NA","NA","right","NA","left","4213.686999981292","5084.049100056291","NA","NA","11181.358799920417","NA","4213.686999981292","NA","NA","2","fake_1_50","1024","2","48000","-16","experiment","52","even","87699.92470007855","NA","72371.9121000031","111128.24270001147","NA","82374.76390006486","61070.334600051865","332482.0082000224","NA","NA","332988.220200059","NA","61184.92430006154","NA","NA","NA","NA","NA","NA","NA","NA","NA","102664.69150001649","NA","332988.38280001655","120135.2611000184","332471.2623000378","NA","120129.74150001537","NA","102658.50580006372","337203.14070000313","NA","87696.21379999444","NA","NA","New experiment","21","191187.801099848","33","1024"
"64","NA","64","5727","5727","#3d3846","psycho","NA","1","undefined","undefined","1","left","0","0","0","0","0","0","0","33","NA","0","33","NA","0","NA","NA","NA","0","NA","NA","NA","NA","NA","0","NA","33","0","33","0","0","0","0","33","0","0","0","NA","Thu Oct 26 14:27:05 2023","50","The main experiment item","yes","CogPsy_Assignment_With_Instruction.osexp","C:/Users/joaquincr/Desktop","no","mono","no","18","no","white","no","Professional and Technical Occupations","yes","768","C:/Users/joaquincr/Desktop/subject-52.csv","fake","Melodramatic Milgram","4.0.5","bottom_left","left","right","NA","NA","right","NA","left","3546.647800016217","5084.049100056291","NA","NA","11181.358799920417","NA","3546.647800016217","NA","NA","2","fake_1_50","1024","2","48000","-16","experiment","52","even","87699.92470007855","NA","72371.9121000031","111128.24270001147","NA","82374.76390006486","61070.334600051865","337381.8351000082","NA","NA","337889.17990005575","NA","61184.92430006154","NA","NA","NA","NA","NA","NA","NA","NA","NA","102664.69150001649","NA","337889.44449997507","120135.2611000184","337372.8006000165","NA","120129.74150001537","NA","102658.50580006372","341437.1347000124","NA","87696.21379999444","NA","NA","New experiment","22","194734.44889986422","34","1024"
"62","NA","62","5689","5689","#3d3846","psycho","NA","0","undefined","undefined","0","left","0","0","0","0","0","0","0","34","NA","0","34","NA","0","NA","NA","NA","0","NA","NA","NA","NA","NA","0","NA","34","0","34","0","0","0","0","34","0","0","0","NA","Thu Oct 26 14:27:05 2023","50","The main experiment item","yes","CogPsy_Assignment_With_Instruction.osexp","C:/Users/joaquincr/Desktop","no","mono","no","18","no","white","no","Professional and Technical Occupations","yes","768","C:/Users/joaquincr/Desktop/subject-52.csv","fake","Melodramatic Milgram","4.0.5","PurpleDenomination3","right","right","NA","NA","right","NA","right","4404.776700073853","5084.049100056291","NA","NA","11181.358799920417","NA","4404.776700073853","NA","NA","2","fake_2_50","1024","2","48000","-16","experiment","52","even","87699.92470007855","NA","72371.9121000031","111128.24270001147","NA","82374.76390006486","61070.334600051865","341689.91970003117","NA","NA","342196.6449000174","NA","61184.92430006154","NA","NA","NA","NA","NA","NA","NA","NA","NA","102664.69150001649","NA","342196.84039999265","120135.2611000184","341679.29520003963","NA","120129.74150001537","NA","102658.50580006372","346603.1002000673","NA","87696.21379999444","NA","NA","New experiment","22","199139.22559993807","35","1024"
"61","NA","61","5571","5571","#3d3846","psycho","NA","0","undefined","undefined","0","left","0","0","0","0","0","0","0","35","NA","0","35","NA","0","NA","NA","NA","0","NA","NA","NA","NA","NA","0","NA","35","0","35","0","0","0","0","35","0","0","0","NA","Thu Oct 26 14:27:05 2023","20","The main experiment item","yes","CogPsy_Assignment_With_Instruction.osexp","C:/Users/joaquincr/Desktop","no","mono","no","18","no","white","no","Professional and Technical Occupations","yes","768","C:/Users/joaquincr/Desktop/subject-52.csv","fake","Melodramatic Milgram","4.0.5","PurpleDenomination","right","right","NA","NA","right","NA","right","1452.5925000198185","5084.049100056291","NA","NA","11181.358799920417","NA","1452.5925000198185","NA","NA","2","fake_20","1024","2","48000","-16","experiment","52","even","87699.92470007855","NA","72371.9121000031","111128.24270001147","NA","82374.76390006486","61070.334600051865","346887.77370005846","NA","NA","347395.3871000558","NA","61184.92430006154","NA","NA","NA","NA","NA","NA","NA","NA","NA","102664.69150001649","NA","347395.7349000266","120135.2611000184","346879.5842999825","NA","120129.74150001537","NA","102658.50580006372","348849.423800013","NA","87696.21379999444","NA","NA","New experiment","22","200591.8180999579","36","1024"
"59","NA","59","5454","5454","#3d3846","psycho","NA","0","undefined","undefined","0","right","0","0","0","0","0","0","0","36","NA","0","36","NA","0","NA","NA","NA","0","NA","NA","NA","NA","NA","0","NA","36","0","36","0","0","0","0","36","0","0","0","NA","Thu Oct 26 14:27:05 2023","20","The main experiment item","yes","CogPsy_Assignment_With_Instruction.osexp","C:/Users/joaquincr/Desktop","no","mono","no","18","no","white","no","Professional and Technical Occupations","yes","768","C:/Users/joaquincr/Desktop/subject-52.csv","real","Melodramatic Milgram","4.0.5","photo","left","right","NA","NA","right","NA","left","1230.0669000251219","5084.049100056291","NA","NA","11181.358799920417","NA","1230.0669000251219","NA","NA","2","real_20","1024","2","48000","-16","experiment","52","even","87699.92470007855","NA","72371.9121000031","111128.24270001147","NA","82374.76390006486","61070.334600051865","349201.98110002093","NA","NA","349708.592500072","NA","61184.92430006154","NA","NA","NA","NA","NA","NA","NA","NA","NA","102664.69150001649","NA","349708.8151000207","120135.2611000184","349191.39910000376","NA","120129.74150001537","NA","102658.50580006372","350939.84680005815","NA","87696.21379999444","NA","NA","New experiment","22","201821.884999983","37","1024"
"60","NA","60","5367","5367","#3d3846","psycho","NA","1","undefined","undefined","1","left","0","0","0","0","0","0","0","37","NA","0","37","NA","0","NA","NA","NA","0","NA","NA","NA","NA","NA","0","NA","37","0","37","0","0","0","0","37","0","0","0","NA","Thu Oct 26 14:27:05 2023","50","The main experiment item","yes","CogPsy_Assignment_With_Instruction.osexp","C:/Users/joaquincr/Desktop","no","mono","no","18","no","white","no","Professional and Technical Occupations","yes","768","C:/Users/joaquincr/Desktop/subject-52.csv","fake","Melodramatic Milgram","4.0.5","silver_strip","left","right","NA","NA","right","NA","left","2153.131300001405","5084.049100056291","NA","NA","11181.358799920417","NA","2153.131300001405","NA","NA","2","fake_2_50","1024","2","48000","-16","experiment","52","even","87699.92470007855","NA","72371.9121000031","111128.24270001147","NA","82374.76390006486","61070.334600051865","351145.5619999906","NA","NA","351651.2603000738","NA","61184.92430006154","NA","NA","NA","NA","NA","NA","NA","NA","NA","102664.69150001649","NA","351651.51340002194","120135.2611000184","351137.07769999746","NA","120129.74150001537","NA","102658.50580006372","353805.7587000076","NA","87696.21379999444","NA","NA","New experiment","23","203975.01629998442","38","1024"
"58","NA","58","5302","5302","#3d3846","psycho","NA","0","undefined","undefined","0","left","0","0","0","0","0","0","0","38","NA","0","38","NA","0","NA","NA","NA","0","NA","NA","NA","NA","NA","0","NA","38","0","38","0","0","0","0","38","0","0","0","NA","Thu Oct 26 14:27:05 2023","50","The main experiment item","yes","CogPsy_Assignment_With_Instruction.osexp","C:/Users/joaquincr/Desktop","no","mono","no","18","no","white","no","Professional and Technical Occupations","yes","768","C:/Users/joaquincr/Desktop/subject-52.csv","fake","Melodramatic Milgram","4.0.5","BadInk","right","right","NA","NA","right","NA","right","2827.9826999641955","5084.049100056291","NA","NA","11181.358799920417","NA","2827.9826999641955","NA","NA","2","fake_2_50","1024","2","48000","-16","experiment","52","even","87699.92470007855","NA","72371.9121000031","111128.24270001147","NA","82374.76390006486","61070.334600051865","354084.192099981","NA","NA","354590.0428000605","NA","61184.92430006154","NA","NA","NA","NA","NA","NA","NA","NA","NA","102664.69150001649","NA","354590.24900000077","120135.2611000184","354074.0975000663","NA","120129.74150001537","NA","102658.50580006372","357419.30960002355","NA","87696.21379999444","NA","NA","New experiment","23","206802.9989999486","39","1024"
"57","NA","57","5262","5262","#3d3846","psycho","NA","0","undefined","undefined","0","left","0","0","0","0","0","0","0","39","NA","0","39","NA","0","NA","NA","NA","0","NA","NA","NA","NA","NA","0","NA","39","0","39","0","0","0","0","39","0","0","0","NA","Thu Oct 26 14:27:05 2023","20","The main experiment item","yes","CogPsy_Assignment_With_Instruction.osexp","C:/Users/joaquincr/Desktop","no","mono","no","18","no","white","no","Professional and Technical Occupations","yes","768","C:/Users/joaquincr/Desktop/subject-52.csv","fake","Melodramatic Milgram","4.0.5","PurpleDenomination","right","right","NA","NA","right","NA","right","3707.202700083144","5084.049100056291","NA","NA","11181.358799920417","NA","3707.202700083144","NA","NA","2","fake_20","1024","2","48000","-16","experiment","52","even","87699.92470007855","NA","72371.9121000031","111128.24270001147","NA","82374.76390006486","61070.334600051865","357673.2282000594","NA","NA","358180.08530000225","NA","61184.92430006154","NA","NA","NA","NA","NA","NA","NA","NA","NA","102664.69150001649","NA","358180.312099983","120135.2611000184","357663.72060007416","NA","120129.74150001537","NA","102658.50580006372","361888.2748000324","NA","87696.21379999444","NA","NA","New experiment","23","210510.20170003176","40","1024"
"58","NA","58","5217","5217","#3d3846","psycho","NA","1","undefined","undefined","1","right","0","0","0","0","0","0","0","40","NA","0","40","NA","0","NA","NA","NA","0","NA","NA","NA","NA","NA","0","NA","40","0","40","0","0","0","0","40","0","0","0","NA","Thu Oct 26 14:27:05 2023","50","The main experiment item","yes","CogPsy_Assignment_With_Instruction.osexp","C:/Users/joaquincr/Desktop","no","mono","no","18","no","white","no","Professional and Technical Occupations","yes","768","C:/Users/joaquincr/Desktop/subject-52.csv","real","Melodramatic Milgram","4.0.5","photo_2","right","right","NA","NA","right","NA","right","3418.1614000117406","5084.049100056291","NA","NA","11181.358799920417","NA","3418.1614000117406","NA","NA","2","real_50","1024","2","48000","-16","experiment","52","even","87699.92470007855","NA","72371.9121000031","111128.24270001147","NA","82374.76390006486","61070.334600051865","362104.0882000234","NA","NA","362610.33320007846","NA","61184.92430006154","NA","NA","NA","NA","NA","NA","NA","NA","NA","102664.69150001649","NA","362610.5253000278","120135.2611000184","362094.0163000487","NA","120129.74150001537","NA","102658.50580006372","366029.65300006326","NA","87696.21379999444","NA","NA","New experiment","24","213928.3631000435","41","1024"
"57","NA","57","5155","5155","#3d3846","psycho","NA","0","undefined","undefined","0","left","0","0","0","0","0","0","0","41","NA","0","41","NA","0","NA","NA","NA","0","NA","NA","NA","NA","NA","0","NA","41","0","41","0","0","0","0","41","0","0","0","NA","Thu Oct 26 14:27:05 2023","20","The main experiment item","yes","CogPsy_Assignment_With_Instruction.osexp","C:/Users/joaquincr/Desktop","no","mono","no","18","no","white","no","Professional and Technical Occupations","yes","768","C:/Users/joaquincr/Desktop/subject-52.csv","fake","Melodramatic Milgram","4.0.5","NoNumOnThread_BlurryWatermark","right","right","NA","NA","right","NA","right","2595.0596999609843","5084.049100056291","NA","NA","11181.358799920417","NA","2595.0596999609843","NA","NA","2","fake_20","1024","2","48000","-16","experiment","52","even","87699.92470007855","NA","72371.9121000031","111128.24270001147","NA","82374.76390006486","61070.334600051865","366304.47370000184","NA","NA","366811.5490999771","NA","61184.92430006154","NA","NA","NA","NA","NA","NA","NA","NA","NA","102664.69150001649","NA","366811.84760003816","120135.2611000184","366295.0719000073","NA","120129.74150001537","NA","102658.50580006372","369407.8877000138","NA","87696.21379999444","NA","NA","New experiment","24","216523.42280000448","42","1024"
"55","NA","55","5250","5250","#3d3846","psycho","NA","0","undefined","undefined","0","left","0","0","0","0","0","0","0","42","NA","0","42","NA","0","NA","NA","NA","0","NA","NA","NA","NA","NA","0","NA","42","0","42","0","0","0","0","42","0","0","0","NA","Thu Oct 26 14:27:05 2023","50","The main experiment item","yes","CogPsy_Assignment_With_Instruction.osexp","C:/Users/joaquincr/Desktop","no","mono","no","18","no","white","no","Professional and Technical Occupations","yes","768","C:/Users/joaquincr/Desktop/subject-52.csv","fake","Melodramatic Milgram","4.0.5","NoNumOnThread_BlurryWatermark","right","right","NA","NA","right","NA","right","9227.121999952942","5084.049100056291","NA","NA","11181.358799920417","NA","9227.121999952942","NA","NA","2","fake_2_50","1024","2","48000","-16","experiment","52","even","87699.92470007855","NA","72371.9121000031","111128.24270001147","NA","82374.76390006486","61070.334600051865","369657.8537999885","NA","NA","370165.63489998225","NA","61184.92430006154","NA","NA","NA","NA","NA","NA","NA","NA","NA","102664.69150001649","NA","370165.9047000576","120135.2611000184","369649.278900004","NA","120129.74150001537","NA","102658.50580006372","379394.5791000733","NA","87696.21379999444","NA","NA","New experiment","24","225750.54479995742","43","1024"
"54","NA","54","5212","5212","#3d3846","psycho","NA","0","undefined","undefined","0","left","0","0","0","0","0","0","0","43","NA","0","43","NA","0","NA","NA","NA","0","NA","NA","NA","NA","NA","0","NA","43","0","43","0","0","0","0","43","0","0","0","NA","Thu Oct 26 14:27:05 2023","50","The main experiment item","yes","CogPsy_Assignment_With_Instruction.osexp","C:/Users/joaquincr/Desktop","no","mono","no","18","no","white","no","Professional and Technical Occupations","yes","768","C:/Users/joaquincr/Desktop/subject-52.csv","fake","Melodramatic Milgram","4.0.5","GreyDenomination","right","right","NA","NA","right","NA","right","3588.3045999798924","5084.049100056291","NA","NA","11181.358799920417","NA","3588.3045999798924","NA","NA","2","fake_2_50","1024","2","48000","-16","experiment","52","even","87699.92470007855","NA","72371.9121000031","111128.24270001147","NA","82374.76390006486","61070.334600051865","379670.16600002535","NA","NA","380176.4524000464","NA","61184.92430006154","NA","NA","NA","NA","NA","NA","NA","NA","NA","102664.69150001649","NA","380176.65200005285","120135.2611000184","379659.6150000114","NA","120129.74150001537","NA","102658.50580006372","383766.14049996715","NA","87696.21379999444","NA","NA","New experiment","24","229338.84939993732","44","1024"
"53","NA","53","5164","5164","#3d3846","psycho","NA","0","undefined","undefined","0","left","0","0","0","0","0","0","0","44","NA","0","44","NA","0","NA","NA","NA","0","NA","NA","NA","NA","NA","0","NA","44","0","44","0","0","0","0","44","0","0","0","NA","Thu Oct 26 14:27:05 2023","20","The main experiment item","yes","CogPsy_Assignment_With_Instruction.osexp","C:/Users/joaquincr/Desktop","no","mono","no","18","no","white","no","Professional and Technical Occupations","yes","768","C:/Users/joaquincr/Desktop/subject-52.csv","fake","Melodramatic Milgram","4.0.5","silver_strip","right","right","NA","NA","right","NA","right","3070.5141000216827","5084.049100056291","NA","NA","11181.358799920417","NA","3070.5141000216827","NA","NA","2","fake_2_20","1024","2","48000","-16","experiment","52","even","87699.92470007855","NA","72371.9121000031","111128.24270001147","NA","82374.76390006486","61070.334600051865","384025.81400005147","NA","NA","384532.9087000573","NA","61184.92430006154","NA","NA","NA","NA","NA","NA","NA","NA","NA","102664.69150001649","NA","384533.1480000168","120135.2611000184","384015.79740003217","NA","120129.74150001537","NA","102658.50580006372","387604.91520003416","NA","87696.21379999444","NA","NA","New experiment","24","232409.363499959","45","1024"
"52","NA","52","5134","5134","#3d3846","psycho","NA","0","undefined","undefined","0","right","0","0","0","0","0","0","0","45","NA","0","45","NA","0","NA","NA","NA","0","NA","NA","NA","NA","NA","0","NA","45","0","45","0","0","0","0","45","0","0","0","NA","Thu Oct 26 14:27:05 2023","20","The main experiment item","yes","CogPsy_Assignment_With_Instruction.osexp","C:/Users/joaquincr/Desktop","no","mono","no","18","no","white","no","Professional and Technical Occupations","yes","768","C:/Users/joaquincr/Desktop/subject-52.csv","real","Melodramatic Milgram","4.0.5","photo","left","right","NA","NA","right","NA","left","3797.327700071037","5084.049100056291","NA","NA","11181.358799920417","NA","3797.327700071037","NA","NA","2","real_20","1024","2","48000","-16","experiment","52","even","87699.92470007855","NA","72371.9121000031","111128.24270001147","NA","82374.76390006486","61070.334600051865","387904.2322000023","NA","NA","388412.13820001576","NA","61184.92430006154","NA","NA","NA","NA","NA","NA","NA","NA","NA","102664.69150001649","NA","388412.44280000683","120135.2611000184","387892.90219999384","NA","120129.74150001537","NA","102658.50580006372","392210.6522000395","NA","87696.21379999444","NA","NA","New experiment","24","236206.69120003004","46","1024"
"53","NA","53","5042","5042","#3d3846","psycho","NA","1","undefined","undefined","1","right","0","0","0","0","0","0","0","46","NA","0","46","NA","0","NA","NA","NA","0","NA","NA","NA","NA","NA","0","NA","46","0","46","0","0","0","0","46","0","0","0","NA","Thu Oct 26 14:27:05 2023","50","The main experiment item","yes","CogPsy_Assignment_With_Instruction.osexp","C:/Users/joaquincr/Desktop","no","mono","no","18","no","white","no","Professional and Technical Occupations","yes","768","C:/Users/joaquincr/Desktop/subject-52.csv","real","Melodramatic Milgram","4.0.5","photo_2","right","right","NA","NA","right","NA","right","773.8184999907389","5084.049100056291","NA","NA","11181.358799920417","NA","773.8184999907389","NA","NA","2","real_50","1024","2","48000","-16","experiment","52","even","87699.92470007855","NA","72371.9121000031","111128.24270001147","NA","82374.76390006486","61070.334600051865","392404.7160000773","NA","NA","392912.46839996893","NA","61184.92430006154","NA","NA","NA","NA","NA","NA","NA","NA","NA","102664.69150001649","NA","392912.77030005585","120135.2611000184","392396.6427000705","NA","120129.74150001537","NA","102658.50580006372","393687.4884000281","NA","87696.21379999444","NA","NA","New experiment","25","236980.50970002078","47","1024"
"52","NA","52","4959","4959","#3d3846","psycho","NA","0","undefined","undefined","0","left","0","0","0","0","0","0","0","47","NA","0","47","NA","0","NA","NA","NA","0","NA","NA","NA","NA","NA","0","NA","47","0","47","0","0","0","0","47","0","0","0","NA","Thu Oct 26 14:27:05 2023","50","The main experiment item","yes","CogPsy_Assignment_With_Instruction.osexp","C:/Users/joaquincr/Desktop","no","mono","no","18","no","white","no","Professional and Technical Occupations","yes","768","C:/Users/joaquincr/Desktop/subject-52.csv","fake","Melodramatic Milgram","4.0.5","PurpleDenomination3","right","right","NA","NA","right","NA","right","1060.6531000230461","5084.049100056291","NA","NA","11181.358799920417","NA","1060.6531000230461","NA","NA","2","fake_2_50","1024","2","48000","-16","experiment","52","even","87699.92470007855","NA","72371.9121000031","111128.24270001147","NA","82374.76390006486","61070.334600051865","393913.46010006964","NA","NA","394423.3816000633","NA","61184.92430006154","NA","NA","NA","NA","NA","NA","NA","NA","NA","102664.69150001649","NA","394423.709900002","120135.2611000184","393905.38570005447","NA","120129.74150001537","NA","102658.50580006372","395485.4444999946","NA","87696.21379999444","NA","NA","New experiment","25","238041.16280004382","48","1024"
"51","NA","51","4883","4883","#3d3846","psycho","NA","0","undefined","undefined","0","left","0","0","0","0","0","0","0","48","NA","0","48","NA","0","NA","NA","NA","0","NA","NA","NA","NA","NA","0","NA","48","0","48","0","0","0","0","48","0","0","0","NA","Thu Oct 26 14:27:05 2023","20","The main experiment item","yes","CogPsy_Assignment_With_Instruction.osexp","C:/Users/joaquincr/Desktop","no","mono","no","18","no","white","no","Professional and Technical Occupations","yes","768","C:/Users/joaquincr/Desktop/subject-52.csv","fake","Melodramatic Milgram","4.0.5","DullHologram2","right","right","NA","NA","right","NA","right","1273.5411999747157","5084.049100056291","NA","NA","11181.358799920417","NA","1273.5411999747157","NA","NA","2","fake_20","1024","2","48000","-16","experiment","52","even","87699.92470007855","NA","72371.9121000031","111128.24270001147","NA","82374.76390006486","61070.334600051865","395751.06759998016","NA","NA","396260.00220002607","NA","61184.92430006154","NA","NA","NA","NA","NA","NA","NA","NA","NA","102664.69150001649","NA","396260.32360002864","120135.2611000184","395740.62160006724","NA","120129.74150001537","NA","102658.50580006372","397535.08599998895","NA","87696.21379999444","NA","NA","New experiment","25","239314.70400001854","49","1024"
"52","NA","52","4806","4806","#3d3846","psycho","NA","1","undefined","undefined","1","left","0","0","0","0","0","0","0","49","NA","0","49","NA","0","NA","NA","NA","0","NA","NA","NA","NA","NA","0","NA","49","0","49","0","0","0","0","49","0","0","0","NA","Thu Oct 26 14:27:05 2023","20","The main experiment item","yes","CogPsy_Assignment_With_Instruction.osexp","C:/Users/joaquincr/Desktop","no","mono","no","18","no","white","no","Professional and Technical Occupations","yes","768","C:/Users/joaquincr/Desktop/subject-52.csv","fake","Melodramatic Milgram","4.0.5","BadInk","left","right","NA","NA","right","NA","left","1005.2334000356495","5084.049100056291","NA","NA","11181.358799920417","NA","1005.2334000356495","NA","NA","2","fake_20","1024","2","48000","-16","experiment","52","even","87699.92470007855","NA","72371.9121000031","111128.24270001147","NA","82374.76390006486","61070.334600051865","397802.26110003423","NA","NA","398311.23420002405","NA","61184.92430006154","NA","NA","NA","NA","NA","NA","NA","NA","NA","102664.69150001649","NA","398311.53479998466","120135.2611000184","397793.4157999698","NA","120129.74150001537","NA","102658.50580006372","399317.68219999503","NA","87696.21379999444","NA","NA","New experiment","26","240319.9374000542","50","1024"
"52","NA","52","4725","4725","#3d3846","psycho","NA","1","undefined","undefined","1","right","0","0","0","0","0","0","0","50","NA","0","50","NA","0","NA","NA","NA","0","NA","NA","NA","NA","NA","0","NA","50","0","50","0","0","0","0","50","0","0","0","NA","Thu Oct 26 14:27:05 2023","50","The main experiment item","yes","CogPsy_Assignment_With_Instruction.osexp","C:/Users/joaquincr/Desktop","no","mono","no","18","no","white","no","Professional and Technical Occupations","yes","768","C:/Users/joaquincr/Desktop/subject-52.csv","real","Melodramatic Milgram","4.0.5","photo","right","right","NA","NA","right","NA","right","666.6087000630796","5084.049100056291","NA","NA","11181.358799920417","NA","666.6087000630796","NA","NA","2","real_50","1024","2","48000","-16","experiment","52","even","87699.92470007855","NA","72371.9121000031","111128.24270001147","NA","82374.76390006486","61070.334600051865","399587.25430001505","NA","NA","400096.72320005484","NA","61184.92430006154","NA","NA","NA","NA","NA","NA","NA","NA","NA","102664.69150001649","NA","400097.08049998153","120135.2611000184","399578.45000003","NA","120129.74150001537","NA","102658.50580006372","400764.8851000704","NA","87696.21379999444","NA","NA","New experiment","27","240986.54610011727","51","1024"
"51","NA","51","4643","4643","#3d3846","psycho","NA","0","undefined","undefined","0","right","0","0","0","0","0","0","0","51","NA","0","51","NA","0","NA","NA","NA","0","NA","NA","NA","NA","NA","0","NA","51","0","51","0","0","0","0","51","0","0","0","NA","Thu Oct 26 14:27:05 2023","50","The main experiment item","yes","CogPsy_Assignment_With_Instruction.osexp","C:/Users/joaquincr/Desktop","no","mono","no","18","no","white","no","Professional and Technical Occupations","yes","768","C:/Users/joaquincr/Desktop/subject-52.csv","real","Melodramatic Milgram","4.0.5","photo_2","left","right","NA","NA","right","NA","left","482.53220005426556","5084.049100056291","NA","NA","11181.358799920417","NA","482.53220005426556","NA","NA","2","real_50","1024","2","48000","-16","experiment","52","even","87699.92470007855","NA","72371.9121000031","111128.24270001147","NA","82374.76390006486","61070.334600051865","400976.8471000716","NA","NA","401482.9769000644","NA","61184.92430006154","NA","NA","NA","NA","NA","NA","NA","NA","NA","102664.69150001649","NA","401483.18530002143","120135.2611000184","400967.8181000054","NA","120129.74150001537","NA","102658.50580006372","401967.25860005245","NA","87696.21379999444","NA","NA","New experiment","27","241469.07830017153","52","1024"
"50","NA","50","4567","4567","#3d3846","psycho","NA","0","undefined","undefined","0","left","0","0","0","0","0","0","0","52","NA","0","52","NA","0","NA","NA","NA","0","NA","NA","NA","NA","NA","0","NA","52","0","52","0","0","0","0","52","0","0","0","NA","Thu Oct 26 14:27:05 2023","50","The main experiment item","yes","CogPsy_Assignment_With_Instruction.osexp","C:/Users/joaquincr/Desktop","no","mono","no","18","no","white","no","Professional and Technical Occupations","yes","768","C:/Users/joaquincr/Desktop/subject-52.csv","fake","Melodramatic Milgram","4.0.5","PurpleDenomination","right","right","NA","NA","right","NA","right","631.087200017646","5084.049100056291","NA","NA","11181.358799920417","NA","631.087200017646","NA","NA","2","fake_2_50","1024","2","48000","-16","experiment","52","even","87699.92470007855","NA","72371.9121000031","111128.24270001147","NA","82374.76390006486","61070.334600051865","402187.72140005603","NA","NA","402693.2197000133","NA","61184.92430006154","NA","NA","NA","NA","NA","NA","NA","NA","NA","102664.69150001649","NA","402693.3917000424","120135.2611000184","402179.37819997314","NA","120129.74150001537","NA","102658.50580006372","403325.3331000451","NA","87696.21379999444","NA","NA","New experiment","27","242100.16550018918","53","1024"
"50","NA","50","4488","4488","#3d3846","psycho","NA","0","undefined","undefined","0","left","0","0","0","0","0","0","0","53","NA","0","53","NA","0","NA","NA","NA","0","NA","NA","NA","NA","NA","0","NA","53","0","53","0","0","0","0","53","0","0","0","NA","Thu Oct 26 14:27:05 2023","20","The main experiment item","yes","CogPsy_Assignment_With_Instruction.osexp","C:/Users/joaquincr/Desktop","no","mono","no","18","no","white","no","Professional and Technical Occupations","yes","768","C:/Users/joaquincr/Desktop/subject-52.csv","fake","Melodramatic Milgram","4.0.5","bottom_left","right","right","NA","NA","right","NA","right","276.3435000088066","5084.049100056291","NA","NA","11181.358799920417","NA","276.3435000088066","NA","NA","2","fake_1_20","1024","2","48000","-16","experiment","52","even","87699.92470007855","NA","72371.9121000031","111128.24270001147","NA","82374.76390006486","61070.334600051865","403500.7381000323","NA","NA","404005.62429998536","NA","61184.92430006154","NA","NA","NA","NA","NA","NA","NA","NA","NA","102664.69150001649","NA","404005.7597999694","120135.2611000184","403492.4664000282","NA","120129.74150001537","NA","102658.50580006372","404283.25600002427","NA","87696.21379999444","NA","NA","New experiment","27","242376.50900019798","54","1024"
"50","NA","50","4488","4488","#3d3846","psycho","NA","0","undefined","undefined","0","left","0","0","0","0","0","0","0","53","NA","0","53","NA","0","NA","NA","NA","0","NA","NA","NA","NA","NA","0","NA","53","0","53","0","0","0","0","53","0","0","0","NA","Thu Oct 26 14:27:05 2023","20","The main experiment item","yes","CogPsy_Assignment_With_Instruction.osexp","C:/Users/joaquincr/Desktop","no","mono","no","18","no","white","no","Mostly the shiny bits on the right and the presence of a watermark. Also details in the print. ","yes","768","C:/Users/joaquincr/Desktop/subject-52.csv","fake","Melodramatic Milgram","4.0.5","bottom_left","Mostly the shiny bits on the right and the presence of a watermark. Also details in the print. ","right","NA","NA","right","NA","right","276.3435000088066","5084.049100056291","NA","NA","11181.358799920417","NA","276.3435000088066","NA","NA","2","fake_1_20","1024","2","48000","-16","experiment","52","even","87699.92470007855","NA","72371.9121000031","111128.24270001147","NA","82374.76390006486","61070.334600051865","403500.7381000323","NA","NA","404005.62429998536","NA","61184.92430006154","NA","NA","NA","475843.3629000792","NA","NA","NA","NA","NA","102664.69150001649","NA","404005.7597999694","120135.2611000184","403492.4664000282","NA","120129.74150001537","404372.10989999585","102658.50580006372","404283.25600002427","NA","87696.21379999444","NA","NA","New experiment","27","242376.50900019798","54","1024"
"50","NA","50","4488","4488","#3d3846","psycho","NA","0","undefined","undefined","0","left","0","0","0","0","0","0","0","53","NA","0","53","NA","0","NA","NA","NA","0","NA","NA","NA","NA","NA","0","NA","53","0","53","0","0","0","0","53","0","0","0","NA","Thu Oct 26 14:27:05 2023","20","The main experiment item","yes","CogPsy_Assignment_With_Instruction.osexp","C:/Users/joaquincr/Desktop","no","mono","no","18","no","white","no","Ok","yes","768","C:/Users/joaquincr/Desktop/subject-52.csv","fake","Melodramatic Milgram","4.0.5","bottom_left","Silver strip (security thread);Watermark;Ink quality","right","NA","NA","right","NA","right","276.3435000088066","5084.049100056291","NA","NA","11181.358799920417","NA","276.3435000088066","NA","NA","2","fake_1_20","1024","2","48000","-16","experiment","52","even","87699.92470007855","NA","72371.9121000031","111128.24270001147","NA","82374.76390006486","61070.334600051865","403500.7381000323","NA","NA","404005.62429998536","NA","61184.92430006154","NA","NA","NA","475843.3629000792","NA","NA","NA","NA","NA","102664.69150001649","NA","404005.7597999694","120135.2611000184","403492.4664000282","NA","120129.74150001537","404372.10989999585","102658.50580006372","404283.25600002427","NA","87696.21379999444","494999.5009000413","NA","New experiment","27","242376.50900019798","54","1024"
