"acc","accept_status","accuracy","average_response_time","avg_rt","background","canvas_backend","checkbox_status","correct","correct_consent_sketchpad","correct_instruction_sketchpad","correct_new_keyboard_response","correct_response","count_age_form","count_checkbox_security_form","count_consent_sketchpad","count_country_logger","count_eurozone_form","count_eurozone_logger","count_experiment","count_fixation_dots","count_getting_started","count_goodbye_sketchpad","count_images_sketchpad","count_information_display_sketchpad","count_instruction_sketchpad","count_new_1_form_base","count_new_1_form_text_input","count_new_1_sketchpad","count_new_2_logger","count_new_4_form_multiple_choice","count_new_form_base","count_new_form_consent","count_new_form_multiple_choice","count_new_form_text_display","count_new_form_text_input","count_new_inline_script","count_new_keyboard_response","count_new_loop","count_new_sequence","count_occupation_form","count_occupation_logger","count_open_security_input_form","count_personal_data_logger","count_response_logger","count_schooling_level_form","count_schooling_logger","count_security_feature_logger","count_welcome","datetime","denomination","description","disable_garbage_collection","experiment_file","experiment_path","font_bold","font_family","font_italic","font_size","font_underline","foreground","form_clicks","form_response","fullscreen","height","logfile","note_type","opensesame_codename","opensesame_version","reason","response","response_consent_sketchpad","response_goodbye_sketchpad","response_information_display_sketchpad","response_instruction_sketchpad","response_new_1_sketchpad","response_new_keyboard_response","response_time","response_time_consent_sketchpad","response_time_goodbye_sketchpad","response_time_information_display_sketchpad","response_time_instruction_sketchpad","response_time_new_1_sketchpad","response_time_new_keyboard_response","response_time_welcome","response_welcome","round_decimals","show","sound_buf_size","sound_channels","sound_freq","sound_sample_size","start","subject_nr","subject_parity","time_age_form","time_checkbox_security_form","time_consent_sketchpad","time_country_logger","time_eurozone_form","time_eurozone_logger","time_experiment","time_fixation_dots","time_getting_started","time_goodbye_sketchpad","time_images_sketchpad","time_information_display_sketchpad","time_instruction_sketchpad","time_new_1_form_base","time_new_1_form_text_input","time_new_1_sketchpad","time_new_2_logger","time_new_4_form_multiple_choice","time_new_form_base","time_new_form_consent","time_new_form_multiple_choice","time_new_form_text_display","time_new_form_text_input","time_new_inline_script","time_new_keyboard_response","time_new_loop","time_new_sequence","time_occupation_form","time_occupation_logger","time_open_security_input_form","time_personal_data_logger","time_response_logger","time_schooling_level_form","time_schooling_logger","time_security_feature_logger","time_welcome","title","total_correct","total_response_time","total_responses","width"
"undefined","NA","undefined","undefined","undefined","#3d3846","psycho","NA","undefined","undefined","undefined","NA","NA","0","0","0","0","0","0","0","NA","NA","0","NA","0","0","NA","NA","NA","0","NA","NA","NA","NA","NA","0","NA","NA","0","NA","0","0","0","0","NA","0","0","0","NA","Sun Oct 15 15:48:50 2023","NA","The main experiment item","yes","CogPsy_Assignment_With_Instruction.osexp","/Users/andrasjoos/Documents/AI Masters/Period 1/Cognitive Psychology/Research project","no","mono","no","18","no","white","no","No","yes","768","/Users/andrasjoos/Documents/AI Masters/Period 1/Cognitive Psychology/Research project/results/subject-2.csv","NA","Melodramatic Milgram","4.0.5","NA","No","right","NA","NA","left","NA","NA","800.5359169910662","800.5359169910662","NA","NA","14556.750709016342","NA","NA","NA","NA","2","NA","1024","2","48000","-16","experiment","2","even","NA","NA","21641.813958005514","NA","NA","24832.08820800064","6672.130750026554","NA","NA","NA","NA","NA","6730.252832989208","NA","NA","NA","NA","NA","NA","NA","NA","NA","NA","NA","NA","NA","NA","NA","NA","NA","NA","NA","NA","NA","NA","NA","New experiment","0","0","0","1024"
"undefined","NA","undefined","undefined","undefined","#3d3846","psycho","NA","undefined","undefined","undefined","NA","NA","0","0","0","0","0","0","0","NA","NA","0","NA","0","0","NA","NA","NA","0","NA","NA","NA","NA","NA","0","NA","NA","0","NA","0","0","0","0","NA","0","0","0","NA","Sun Oct 15 15:48:50 2023","NA","The main experiment item","yes","CogPsy_Assignment_With_Instruction.osexp","/Users/andrasjoos/Documents/AI Masters/Period 1/Cognitive Psychology/Research project","no","mono","no","18","no","white","no","Bachelors","yes","768","/Users/andrasjoos/Documents/AI Masters/Period 1/Cognitive Psychology/Research project/results/subject-2.csv","NA","Melodramatic Milgram","4.0.5","NA","Bachelors","right","NA","NA","left","NA","NA","800.5359169910662","800.5359169910662","NA","NA","14556.750709016342","NA","NA","NA","NA","2","NA","1024","2","48000","-16","experiment","2","even","NA","NA","21641.813958005514","NA","NA","24832.08820800064","6672.130750026554","NA","NA","NA","NA","NA","6730.252832989208","NA","NA","NA","NA","NA","NA","NA","NA","NA","NA","NA","NA","NA","NA","NA","NA","NA","NA","NA","NA","25762.44175003376","NA","NA","New experiment","0","0","0","1024"
"undefined","NA","undefined","undefined","undefined","#3d3846","psycho","NA","undefined","undefined","undefined","NA","NA","0","0","0","0","0","0","0","NA","NA","0","NA","0","0","NA","NA","NA","0","NA","NA","NA","NA","NA","0","NA","NA","0","NA","0","0","0","0","NA","0","0","0","NA","Sun Oct 15 15:48:50 2023","NA","The main experiment item","yes","CogPsy_Assignment_With_Instruction.osexp","/Users/andrasjoos/Documents/AI Masters/Period 1/Cognitive Psychology/Research project","no","mono","no","18","no","white","no","23","yes","768","/Users/andrasjoos/Documents/AI Masters/Period 1/Cognitive Psychology/Research project/results/subject-2.csv","NA","Melodramatic Milgram","4.0.5","NA","23","right","NA","NA","left","NA","NA","800.5359169910662","800.5359169910662","NA","NA","14556.750709016342","NA","NA","NA","NA","2","NA","1024","2","48000","-16","experiment","2","even","25763.228875002824","NA","21641.813958005514","NA","NA","24832.08820800064","6672.130750026554","NA","NA","NA","NA","NA","6730.252832989208","NA","NA","NA","NA","NA","NA","NA","NA","NA","NA","NA","NA","NA","NA","NA","NA","NA","27892.178417008836","NA","NA","25762.44175003376","NA","NA","New experiment","0","0","0","1024"
"undefined","NA","undefined","undefined","undefined","#3d3846","psycho","NA","undefined","undefined","undefined","NA","NA","0","0","0","0","0","0","0","NA","NA","0","NA","0","0","NA","NA","NA","0","NA","NA","NA","NA","NA","0","NA","NA","0","NA","0","0","0","0","NA","0","0","0","NA","Sun Oct 15 15:48:50 2023","NA","The main experiment item","yes","CogPsy_Assignment_With_Instruction.osexp","/Users/andrasjoos/Documents/AI Masters/Period 1/Cognitive Psychology/Research project","no","mono","no","18","no","white","no","Hungarian","yes","768","/Users/andrasjoos/Documents/AI Masters/Period 1/Cognitive Psychology/Research project/results/subject-2.csv","NA","Melodramatic Milgram","4.0.5","NA","Hungarian","right","NA","NA","left","NA","NA","800.5359169910662","800.5359169910662","NA","NA","14556.750709016342","NA","NA","NA","NA","2","NA","1024","2","48000","-16","experiment","2","even","25763.228875002824","NA","21641.813958005514","31112.503791984636","NA","24832.08820800064","6672.130750026554","NA","NA","NA","NA","NA","6730.252832989208","NA","NA","NA","NA","NA","NA","NA","NA","NA","27892.967041989323","NA","NA","NA","NA","NA","NA","NA","27892.178417008836","NA","NA","25762.44175003376","NA","NA","New experiment","0","0","0","1024"
"undefined","NA","undefined","undefined","undefined","#3d3846","psycho","NA","undefined","undefined","undefined","NA","NA","0","0","0","0","0","0","0","NA","NA","0","NA","0","0","NA","NA","NA","0","NA","NA","NA","NA","NA","0","NA","NA","0","NA","0","0","0","0","NA","0","0","0","NA","Sun Oct 15 15:48:50 2023","NA","The main experiment item","yes","CogPsy_Assignment_With_Instruction.osexp","/Users/andrasjoos/Documents/AI Masters/Period 1/Cognitive Psychology/Research project","no","mono","no","18","no","white","no","Student","yes","768","/Users/andrasjoos/Documents/AI Masters/Period 1/Cognitive Psychology/Research project/results/subject-2.csv","NA","Melodramatic Milgram","4.0.5","NA","Student","right","NA","NA","left","NA","NA","800.5359169910662","800.5359169910662","NA","NA","14556.750709016342","NA","NA","NA","NA","2","NA","1024","2","48000","-16","experiment","2","even","25763.228875002824","NA","21641.813958005514","31112.503791984636","NA","24832.08820800064","6672.130750026554","NA","NA","NA","NA","NA","6730.252832989208","NA","NA","NA","NA","NA","NA","NA","NA","NA","27892.967041989323","NA","NA","NA","NA","NA","32877.32541700825","NA","27892.178417008836","NA","NA","25762.44175003376","NA","NA","New experiment","0","0","0","1024"
"100","NA","100","6675","6675","#3d3846","psycho","NA","1","undefined","undefined","1","right","0","0","0","0","0","0","0","0","NA","0","0","0","0","NA","NA","NA","0","NA","NA","NA","NA","NA","0","NA","0","0","0","0","0","0","0","0","0","0","0","NA","Sun Oct 15 15:48:50 2023","20","The main experiment item","yes","CogPsy_Assignment_With_Instruction.osexp","/Users/andrasjoos/Documents/AI Masters/Period 1/Cognitive Psychology/Research project","no","mono","no","18","no","white","no","Student","yes","768","/Users/andrasjoos/Documents/AI Masters/Period 1/Cognitive Psychology/Research project/results/subject-2.csv","real","Melodramatic Milgram","4.0.5","genuine","right","right","NA","space","left","NA","right","6675.32391595887","800.5359169910662","NA","1105.2499579964206","14556.750709016342","NA","6675.32391595887","NA","NA","2","real_20","1024","2","48000","-16","experiment","2","even","25763.228875002824","NA","21641.813958005514","31112.503791984636","NA","24832.08820800064","6672.130750026554","34050.329332996625","NA","NA","34554.4241250027","32886.6483750171","6730.252832989208","NA","NA","NA","NA","NA","NA","NA","NA","NA","27892.967041989323","NA","34554.5849170303","33993.929749995004","34042.259542038664","NA","32877.32541700825","NA","27892.178417008836","41232.940374989994","NA","25762.44175003376","NA","NA","New experiment","1","6675.32391595887","1","1024"
"100","NA","100","4494","4494","#3d3846","psycho","NA","1","undefined","undefined","1","right","0","0","0","0","0","0","0","1","NA","0","1","0","0","NA","NA","NA","0","NA","NA","NA","NA","NA","0","NA","1","0","1","0","0","0","0","1","0","0","0","NA","Sun Oct 15 15:48:50 2023","50","The main experiment item","yes","CogPsy_Assignment_With_Instruction.osexp","/Users/andrasjoos/Documents/AI Masters/Period 1/Cognitive Psychology/Research project","no","mono","no","18","no","white","no","Student","yes","768","/Users/andrasjoos/Documents/AI Masters/Period 1/Cognitive Psychology/Research project/results/subject-2.csv","real","Melodramatic Milgram","4.0.5","photo_2","right","right","NA","space","left","NA","right","2313.229917024728","800.5359169910662","NA","1105.2499579964206","14556.750709016342","NA","2313.229917024728","NA","NA","2","real_50","1024","2","48000","-16","experiment","2","even","25763.228875002824","NA","21641.813958005514","31112.503791984636","NA","24832.08820800064","6672.130750026554","41493.67270799121","NA","NA","42000.13283302542","32886.6483750171","6730.252832989208","NA","NA","NA","NA","NA","NA","NA","NA","NA","27892.967041989323","NA","42000.299707986414","33993.929749995004","41454.59654199658","NA","32877.32541700825","NA","27892.178417008836","44329.28208302474","NA","25762.44175003376","NA","NA","New experiment","2","8988.553832983598","2","1024"
"100","NA","100","5189","5189","#3d3846","psycho","NA","1","undefined","undefined","1","left","0","0","0","0","0","0","0","2","NA","0","2","0","0","NA","NA","NA","0","NA","NA","NA","NA","NA","0","NA","2","0","2","0","0","0","0","2","0","0","0","NA","Sun Oct 15 15:48:50 2023","20","The main experiment item","yes","CogPsy_Assignment_With_Instruction.osexp","/Users/andrasjoos/Documents/AI Masters/Period 1/Cognitive Psychology/Research project","no","mono","no","18","no","white","no","Student","yes","768","/Users/andrasjoos/Documents/AI Masters/Period 1/Cognitive Psychology/Research project/results/subject-2.csv","fake","Melodramatic Milgram","4.0.5","DullHologram","left","right","NA","space","left","NA","left","6581.112583982758","800.5359169910662","NA","1105.2499579964206","14556.750709016342","NA","6581.112583982758","NA","NA","2","fake_20","1024","2","48000","-16","experiment","2","even","25763.228875002824","NA","21641.813958005514","31112.503791984636","NA","24832.08820800064","6672.130750026554","44462.8260830068","NA","NA","44968.93891703803","32886.6483750171","6730.252832989208","NA","NA","NA","NA","NA","NA","NA","NA","NA","27892.967041989323","NA","44969.16533302283","33993.929749995004","44450.41054202011","NA","32877.32541700825","NA","27892.178417008836","51552.46091703884","NA","25762.44175003376","NA","NA","New experiment","3","15569.666416966356","3","1024"
"75","NA","75","4171","4171","#3d3846","psycho","NA","0","undefined","undefined","0","left","0","0","0","0","0","0","0","3","NA","0","3","0","0","NA","NA","NA","0","NA","NA","NA","NA","NA","0","NA","3","0","3","0","0","0","0","3","0","0","0","NA","Sun Oct 15 15:48:50 2023","20","The main experiment item","yes","CogPsy_Assignment_With_Instruction.osexp","/Users/andrasjoos/Documents/AI Masters/Period 1/Cognitive Psychology/Research project","no","mono","no","18","no","white","no","Student","yes","768","/Users/andrasjoos/Documents/AI Masters/Period 1/Cognitive Psychology/Research project/results/subject-2.csv","fake","Melodramatic Milgram","4.0.5","PurpleDenomination","right","right","NA","space","left","NA","right","1116.0309169790708","800.5359169910662","NA","1105.2499579964206","14556.750709016342","NA","1116.0309169790708","NA","NA","2","fake_20","1024","2","48000","-16","experiment","2","even","25763.228875002824","NA","21641.813958005514","31112.503791984636","NA","24832.08820800064","6672.130750026554","51765.21154202055","NA","NA","52271.5138749918","32886.6483750171","6730.252832989208","NA","NA","NA","NA","NA","NA","NA","NA","NA","27892.967041989323","NA","52271.70358301373","33993.929749995004","51723.98279199842","NA","32877.32541700825","NA","27892.178417008836","53389.14045802085","NA","25762.44175003376","NA","NA","New experiment","3","16685.697333945427","4","1024"
"60","NA","60","4605","4605","#3d3846","psycho","NA","0","undefined","undefined","0","right","0","0","0","0","0","0","0","4","NA","0","4","0","0","NA","NA","NA","0","NA","NA","NA","NA","NA","0","NA","4","0","4","0","0","0","0","4","0","0","0","NA","Sun Oct 15 15:48:50 2023","50","The main experiment item","yes","CogPsy_Assignment_With_Instruction.osexp","/Users/andrasjoos/Documents/AI Masters/Period 1/Cognitive Psychology/Research project","no","mono","no","18","no","white","no","Student","yes","768","/Users/andrasjoos/Documents/AI Masters/Period 1/Cognitive Psychology/Research project/results/subject-2.csv","real","Melodramatic Milgram","4.0.5","photo","left","right","NA","space","left","NA","left","6342.656874970999","800.5359169910662","NA","1105.2499579964206","14556.750709016342","NA","6342.656874970999","NA","NA","2","real_50","1024","2","48000","-16","experiment","2","even","25763.228875002824","NA","21641.813958005514","31112.503791984636","NA","24832.08820800064","6672.130750026554","53509.23604203854","NA","NA","54013.82083300268","32886.6483750171","6730.252832989208","NA","NA","NA","NA","NA","NA","NA","NA","NA","27892.967041989323","NA","54013.99175002007","33993.929749995004","53500.68966700928","NA","32877.32541700825","NA","27892.178417008836","60359.9662919878","NA","25762.44175003376","NA","NA","New experiment","3","23028.354208916426","5","1024"
"50","NA","50","4694","4694","#3d3846","psycho","NA","0","undefined","undefined","0","left","0","0","0","0","0","0","0","5","NA","0","5","0","0","NA","NA","NA","0","NA","NA","NA","NA","NA","0","NA","5","0","5","0","0","0","0","5","0","0","0","NA","Sun Oct 15 15:48:50 2023","20","The main experiment item","yes","CogPsy_Assignment_With_Instruction.osexp","/Users/andrasjoos/Documents/AI Masters/Period 1/Cognitive Psychology/Research project","no","mono","no","18","no","white","no","Student","yes","768","/Users/andrasjoos/Documents/AI Masters/Period 1/Cognitive Psychology/Research project/results/subject-2.csv","fake","Melodramatic Milgram","4.0.5","BrownDenomination","right","right","NA","space","left","NA","right","5139.056582993362","800.5359169910662","NA","1105.2499579964206","14556.750709016342","NA","5139.056582993362","NA","NA","2","fake_20","1024","2","48000","-16","experiment","2","even","25763.228875002824","NA","21641.813958005514","31112.503791984636","NA","24832.08820800064","6672.130750026554","60532.79616701184","NA","NA","61039.351999992505","32886.6483750171","6730.252832989208","NA","NA","NA","NA","NA","NA","NA","NA","NA","27892.967041989323","NA","61039.54937501112","33993.929749995004","60483.77925000386","NA","32877.32541700825","NA","27892.178417008836","66180.18520803889","NA","25762.44175003376","NA","NA","New experiment","3","28167.410791909788","6","1024"
"57","NA","57","4373","4373","#3d3846","psycho","NA","1","undefined","undefined","1","right","0","0","0","0","0","0","0","6","NA","0","6","0","0","NA","NA","NA","0","NA","NA","NA","NA","NA","0","NA","6","0","6","0","0","0","0","6","0","0","0","NA","Sun Oct 15 15:48:50 2023","50","The main experiment item","yes","CogPsy_Assignment_With_Instruction.osexp","/Users/andrasjoos/Documents/AI Masters/Period 1/Cognitive Psychology/Research project","no","mono","no","18","no","white","no","Student","yes","768","/Users/andrasjoos/Documents/AI Masters/Period 1/Cognitive Psychology/Research project/results/subject-2.csv","real","Melodramatic Milgram","4.0.5","photo_2","right","right","NA","space","left","NA","right","2449.713249981869","800.5359169910662","NA","1105.2499579964206","14556.750709016342","NA","2449.713249981869","NA","NA","2","real_50","1024","2","48000","-16","experiment","2","even","25763.228875002824","NA","21641.813958005514","31112.503791984636","NA","24832.08820800064","6672.130750026554","66316.72400003299","NA","NA","66826.15924999118","32886.6483750171","6730.252832989208","NA","NA","NA","NA","NA","NA","NA","NA","NA","27892.967041989323","NA","66826.37633301783","33993.929749995004","66284.15129199857","NA","32877.32541700825","NA","27892.178417008836","69278.05687498767","NA","25762.44175003376","NA","NA","New experiment","4","30617.124041891657","7","1024"
"50","NA","50","4240","4240","#3d3846","psycho","NA","0","undefined","undefined","0","right","0","0","0","0","0","0","0","7","NA","0","7","0","0","NA","NA","NA","0","NA","NA","NA","NA","NA","0","NA","7","0","7","0","0","0","0","7","0","0","0","NA","Sun Oct 15 15:48:50 2023","50","The main experiment item","yes","CogPsy_Assignment_With_Instruction.osexp","/Users/andrasjoos/Documents/AI Masters/Period 1/Cognitive Psychology/Research project","no","mono","no","18","no","white","no","Student","yes","768","/Users/andrasjoos/Documents/AI Masters/Period 1/Cognitive Psychology/Research project/results/subject-2.csv","real","Melodramatic Milgram","4.0.5","photo","left","right","NA","space","left","NA","left","3306.213708012365","800.5359169910662","NA","1105.2499579964206","14556.750709016342","NA","3306.213708012365","NA","NA","2","real_50","1024","2","48000","-16","experiment","2","even","25763.228875002824","NA","21641.813958005514","31112.503791984636","NA","24832.08820800064","6672.130750026554","69414.13904202636","NA","NA","69919.33766700095","32886.6483750171","6730.252832989208","NA","NA","NA","NA","NA","NA","NA","NA","NA","27892.967041989323","NA","69919.51729200082","33993.929749995004","69403.78870803397","NA","32877.32541700825","NA","27892.178417008836","73230.04608298652","NA","25762.44175003376","NA","NA","New experiment","4","33923.33774990402","8","1024"
"55","NA","55","3988","3988","#3d3846","psycho","NA","1","undefined","undefined","1","left","0","0","0","0","0","0","0","8","NA","0","8","0","0","NA","NA","NA","0","NA","NA","NA","NA","NA","0","NA","8","0","8","0","0","0","0","8","0","0","0","NA","Sun Oct 15 15:48:50 2023","20","The main experiment item","yes","CogPsy_Assignment_With_Instruction.osexp","/Users/andrasjoos/Documents/AI Masters/Period 1/Cognitive Psychology/Research project","no","mono","no","18","no","white","no","Student","yes","768","/Users/andrasjoos/Documents/AI Masters/Period 1/Cognitive Psychology/Research project/results/subject-2.csv","fake","Melodramatic Milgram","4.0.5","BadInk2","left","right","NA","space","left","NA","left","1974.8318329802714","800.5359169910662","NA","1105.2499579964206","14556.750709016342","NA","1974.8318329802714","NA","NA","2","fake_20","1024","2","48000","-16","experiment","2","even","25763.228875002824","NA","21641.813958005514","31112.503791984636","NA","24832.08820800064","6672.130750026554","73488.553333038","NA","NA","73995.29787502252","32886.6483750171","6730.252832989208","NA","NA","NA","NA","NA","NA","NA","NA","NA","27892.967041989323","NA","73995.47841702588","33993.929749995004","73438.08950000675","NA","32877.32541700825","NA","27892.178417008836","75972.09733299678","NA","25762.44175003376","NA","NA","New experiment","5","35898.16958288429","9","1024"
"50","NA","50","3684","3684","#3d3846","psycho","NA","0","undefined","undefined","0","right","0","0","0","0","0","0","0","9","NA","0","9","0","0","NA","NA","NA","0","NA","NA","NA","NA","NA","0","NA","9","0","9","0","0","0","0","9","0","0","0","NA","Sun Oct 15 15:48:50 2023","50","The main experiment item","yes","CogPsy_Assignment_With_Instruction.osexp","/Users/andrasjoos/Documents/AI Masters/Period 1/Cognitive Psychology/Research project","no","mono","no","18","no","white","no","Student","yes","768","/Users/andrasjoos/Documents/AI Masters/Period 1/Cognitive Psychology/Research project/results/subject-2.csv","real","Melodramatic Milgram","4.0.5","genuine","left","right","NA","space","left","NA","left","950.5846250103787","800.5359169910662","NA","1105.2499579964206","14556.750709016342","NA","950.5846250103787","NA","NA","2","real_20","1024","2","48000","-16","experiment","2","even","25763.228875002824","NA","21641.813958005514","31112.503791984636","NA","24832.08820800064","6672.130750026554","76065.04041701555","NA","NA","76580.02395799849","32886.6483750171","6730.252832989208","NA","NA","NA","NA","NA","NA","NA","NA","NA","27892.967041989323","NA","76580.35549998749","33993.929749995004","76055.47812499572","NA","32877.32541700825","NA","27892.178417008836","77533.96287502255","NA","25762.44175003376","NA","NA","New experiment","5","36848.75420789467","10","1024"
"54","NA","54","3442","3442","#3d3846","psycho","NA","1","undefined","undefined","1","left","0","0","0","0","0","0","0","10","NA","0","10","0","0","NA","NA","NA","0","NA","NA","NA","NA","NA","0","NA","10","0","10","0","0","0","0","10","0","0","0","NA","Sun Oct 15 15:48:50 2023","20","The main experiment item","yes","CogPsy_Assignment_With_Instruction.osexp","/Users/andrasjoos/Documents/AI Masters/Period 1/Cognitive Psychology/Research project","no","mono","no","18","no","white","no","Student","yes","768","/Users/andrasjoos/Documents/AI Masters/Period 1/Cognitive Psychology/Research project/results/subject-2.csv","fake","Melodramatic Milgram","4.0.5","BadInk2","left","right","NA","space","left","NA","left","1018.217959033791","800.5359169910662","NA","1105.2499579964206","14556.750709016342","NA","1018.217959033791","NA","NA","2","fake_20","1024","2","48000","-16","experiment","2","even","25763.228875002824","NA","21641.813958005514","31112.503791984636","NA","24832.08820800064","6672.130750026554","77751.54274998931","NA","NA","78257.44179199683","32886.6483750171","6730.252832989208","NA","NA","NA","NA","NA","NA","NA","NA","NA","27892.967041989323","NA","78257.68233300187","33993.929749995004","77744.33458299609","NA","32877.32541700825","NA","27892.178417008836","79277.48712501489","NA","25762.44175003376","NA","NA","New experiment","6","37866.97216692846","11","1024"
"58","NA","58","3674","3674","#3d3846","psycho","NA","1","undefined","undefined","1","right","0","0","0","0","0","0","0","11","NA","0","11","0","0","NA","NA","NA","0","NA","NA","NA","NA","NA","0","NA","11","0","11","0","0","0","0","11","0","0","0","NA","Sun Oct 15 15:48:50 2023","20","The main experiment item","yes","CogPsy_Assignment_With_Instruction.osexp","/Users/andrasjoos/Documents/AI Masters/Period 1/Cognitive Psychology/Research project","no","mono","no","18","no","white","no","Student","yes","768","/Users/andrasjoos/Documents/AI Masters/Period 1/Cognitive Psychology/Research project/results/subject-2.csv","real","Melodramatic Milgram","4.0.5","photo","right","right","NA","space","left","NA","right","6230.042124981992","800.5359169910662","NA","1105.2499579964206","14556.750709016342","NA","6230.042124981992","NA","NA","2","real_20","1024","2","48000","-16","experiment","2","even","25763.228875002824","NA","21641.813958005514","31112.503791984636","NA","24832.08820800064","6672.130750026554","79424.03095803456","NA","NA","79928.3852080116","32886.6483750171","6730.252832989208","NA","NA","NA","NA","NA","NA","NA","NA","NA","27892.967041989323","NA","79928.55737503851","33993.929749995004","79416.30541702034","NA","32877.32541700825","NA","27892.178417008836","86160.0686670281","NA","25762.44175003376","NA","NA","New experiment","7","44097.014291910455","12","1024"
"61","NA","61","3476","3476","#3d3846","psycho","NA","1","undefined","undefined","1","left","0","0","0","0","0","0","0","12","NA","0","12","0","0","NA","NA","NA","0","NA","NA","NA","NA","NA","0","NA","12","0","12","0","0","0","0","12","0","0","0","NA","Sun Oct 15 15:48:50 2023","50","The main experiment item","yes","CogPsy_Assignment_With_Instruction.osexp","/Users/andrasjoos/Documents/AI Masters/Period 1/Cognitive Psychology/Research project","no","mono","no","18","no","white","no","Student","yes","768","/Users/andrasjoos/Documents/AI Masters/Period 1/Cognitive Psychology/Research project/results/subject-2.csv","fake","Melodramatic Milgram","4.0.5","BadInk","left","right","NA","space","left","NA","left","1101.3702080235817","800.5359169910662","NA","1105.2499579964206","14556.750709016342","NA","1101.3702080235817","NA","NA","2","fake_2_50","1024","2","48000","-16","experiment","2","even","25763.228875002824","NA","21641.813958005514","31112.503791984636","NA","24832.08820800064","6672.130750026554","86326.2927919859","NA","NA","86834.4586250023","32886.6483750171","6730.252832989208","NA","NA","NA","NA","NA","NA","NA","NA","NA","27892.967041989323","NA","86834.71650001593","33993.929749995004","86284.41175003536","NA","32877.32541700825","NA","27892.178417008836","87938.18720802665","NA","25762.44175003376","NA","NA","New experiment","8","45198.384499934036","13","1024"
"64","NA","64","3302","3302","#3d3846","psycho","NA","1","undefined","undefined","1","right","0","0","0","0","0","0","0","13","NA","0","13","0","0","NA","NA","NA","0","NA","NA","NA","NA","NA","0","NA","13","0","13","0","0","0","0","13","0","0","0","NA","Sun Oct 15 15:48:50 2023","50","The main experiment item","yes","CogPsy_Assignment_With_Instruction.osexp","/Users/andrasjoos/Documents/AI Masters/Period 1/Cognitive Psychology/Research project","no","mono","no","18","no","white","no","Student","yes","768","/Users/andrasjoos/Documents/AI Masters/Period 1/Cognitive Psychology/Research project/results/subject-2.csv","real","Melodramatic Milgram","4.0.5","photo_2","right","right","NA","space","left","NA","right","1043.0978329968639","800.5359169910662","NA","1105.2499579964206","14556.750709016342","NA","1043.0978329968639","NA","NA","2","real_50","1024","2","48000","-16","experiment","2","even","25763.228875002824","NA","21641.813958005514","31112.503791984636","NA","24832.08820800064","6672.130750026554","88090.55587503826","NA","NA","88595.80266702687","32886.6483750171","6730.252832989208","NA","NA","NA","NA","NA","NA","NA","NA","NA","27892.967041989323","NA","88595.97625001334","33993.929749995004","88081.33320801426","NA","32877.32541700825","NA","27892.178417008836","89640.50874998793","NA","25762.44175003376","NA","NA","New experiment","9","46241.4823329309","14","1024"
"66","NA","66","3190","3190","#3d3846","psycho","NA","1","undefined","undefined","1","left","0","0","0","0","0","0","0","14","NA","0","14","0","0","NA","NA","NA","0","NA","NA","NA","NA","NA","0","NA","14","0","14","0","0","0","0","14","0","0","0","NA","Sun Oct 15 15:48:50 2023","50","The main experiment item","yes","CogPsy_Assignment_With_Instruction.osexp","/Users/andrasjoos/Documents/AI Masters/Period 1/Cognitive Psychology/Research project","no","mono","no","18","no","white","no","Student","yes","768","/Users/andrasjoos/Documents/AI Masters/Period 1/Cognitive Psychology/Research project/results/subject-2.csv","fake","Melodramatic Milgram","4.0.5","BadInk","left","right","NA","space","left","NA","left","1609.5046660047956","800.5359169910662","NA","1105.2499579964206","14556.750709016342","NA","1609.5046660047956","NA","NA","2","fake_2_50","1024","2","48000","-16","experiment","2","even","25763.228875002824","NA","21641.813958005514","31112.503791984636","NA","24832.08820800064","6672.130750026554","89777.31529198354","NA","NA","90281.61091700895","32886.6483750171","6730.252832989208","NA","NA","NA","NA","NA","NA","NA","NA","NA","27892.967041989323","NA","90281.77616698667","33993.929749995004","89771.0045420099","NA","32877.32541700825","NA","27892.178417008836","91895.42837499175","NA","25762.44175003376","NA","NA","New experiment","10","47850.986998935696","15","1024"
"68","NA","68","3023","3023","#3d3846","psycho","NA","1","undefined","undefined","1","left","0","0","0","0","0","0","0","15","NA","0","15","0","0","NA","NA","NA","0","NA","NA","NA","NA","NA","0","NA","15","0","15","0","0","0","0","15","0","0","0","NA","Sun Oct 15 15:48:50 2023","50","The main experiment item","yes","CogPsy_Assignment_With_Instruction.osexp","/Users/andrasjoos/Documents/AI Masters/Period 1/Cognitive Psychology/Research project","no","mono","no","18","no","white","no","Student","yes","768","/Users/andrasjoos/Documents/AI Masters/Period 1/Cognitive Psychology/Research project/results/subject-2.csv","fake","Melodramatic Milgram","4.0.5","PurpleDenomination2","left","right","NA","space","left","NA","left","525.0220419839025","800.5359169910662","NA","1105.2499579964206","14556.750709016342","NA","525.0220419839025","NA","NA","2","fake_2_50","1024","2","48000","-16","experiment","2","even","25763.228875002824","NA","21641.813958005514","31112.503791984636","NA","24832.08820800064","6672.130750026554","92044.01075001806","NA","NA","92548.78137499327","32886.6483750171","6730.252832989208","NA","NA","NA","NA","NA","NA","NA","NA","NA","27892.967041989323","NA","92548.94645803142","33993.929749995004","92031.73108299961","NA","32877.32541700825","NA","27892.178417008836","93075.52554202266","NA","25762.44175003376","NA","NA","New experiment","11","48376.0090409196","16","1024"
"70","NA","70","2887","2887","#3d3846","psycho","NA","1","undefined","undefined","1","left","0","0","0","0","0","0","0","16","NA","0","16","0","0","NA","NA","NA","0","NA","NA","NA","NA","NA","0","NA","16","0","16","0","0","0","0","16","0","0","0","NA","Sun Oct 15 15:48:50 2023","50","The main experiment item","yes","CogPsy_Assignment_With_Instruction.osexp","/Users/andrasjoos/Documents/AI Masters/Period 1/Cognitive Psychology/Research project","no","mono","no","18","no","white","no","Student","yes","768","/Users/andrasjoos/Documents/AI Masters/Period 1/Cognitive Psychology/Research project/results/subject-2.csv","fake","Melodramatic Milgram","4.0.5","bottom_left","left","right","NA","space","left","NA","left","709.3213750049472","800.5359169910662","NA","1105.2499579964206","14556.750709016342","NA","709.3213750049472","NA","NA","2","fake_1_50","1024","2","48000","-16","experiment","2","even","25763.228875002824","NA","21641.813958005514","31112.503791984636","NA","24832.08820800064","6672.130750026554","93164.65916699963","NA","NA","93669.1199580091","32886.6483750171","6730.252832989208","NA","NA","NA","NA","NA","NA","NA","NA","NA","27892.967041989323","NA","93669.30524999043","33993.929749995004","93159.16195802856","NA","32877.32541700825","NA","27892.178417008836","94380.09045802755","NA","25762.44175003376","NA","NA","New experiment","12","49085.330415924545","17","1024"
"72","NA","72","2788","2788","#3d3846","psycho","NA","1","undefined","undefined","1","left","0","0","0","0","0","0","0","17","NA","0","17","0","0","NA","NA","NA","0","NA","NA","NA","NA","NA","0","NA","17","0","17","0","0","0","0","17","0","0","0","NA","Sun Oct 15 15:48:50 2023","20","The main experiment item","yes","CogPsy_Assignment_With_Instruction.osexp","/Users/andrasjoos/Documents/AI Masters/Period 1/Cognitive Psychology/Research project","no","mono","no","18","no","white","no","Student","yes","768","/Users/andrasjoos/Documents/AI Masters/Period 1/Cognitive Psychology/Research project/results/subject-2.csv","fake","Melodramatic Milgram","4.0.5","DullHologram2","left","right","NA","space","left","NA","left","1108.240499976091","800.5359169910662","NA","1105.2499579964206","14556.750709016342","NA","1108.240499976091","NA","NA","2","fake_20","1024","2","48000","-16","experiment","2","even","25763.228875002824","NA","21641.813958005514","31112.503791984636","NA","24832.08820800064","6672.130750026554","94503.33854201017","NA","NA","95008.05691699497","32886.6483750171","6730.252832989208","NA","NA","NA","NA","NA","NA","NA","NA","NA","27892.967041989323","NA","95008.21762502892","33993.929749995004","94497.16441700002","NA","32877.32541700825","NA","27892.178417008836","96122.39687499823","NA","25762.44175003376","NA","NA","New experiment","13","50193.57091590064","18","1024"
"68","NA","68","2789","2789","#3d3846","psycho","NA","0","undefined","undefined","0","right","0","0","0","0","0","0","0","18","NA","0","18","0","0","NA","NA","NA","0","NA","NA","NA","NA","NA","0","NA","18","0","18","0","0","0","0","18","0","0","0","NA","Sun Oct 15 15:48:50 2023","50","The main experiment item","yes","CogPsy_Assignment_With_Instruction.osexp","/Users/andrasjoos/Documents/AI Masters/Period 1/Cognitive Psychology/Research project","no","mono","no","18","no","white","no","Student","yes","768","/Users/andrasjoos/Documents/AI Masters/Period 1/Cognitive Psychology/Research project/results/subject-2.csv","real","Melodramatic Milgram","4.0.5","genuine","left","right","NA","space","left","NA","left","2813.119958038442","800.5359169910662","NA","1105.2499579964206","14556.750709016342","NA","2813.119958038442","NA","NA","2","real_50","1024","2","48000","-16","experiment","2","even","25763.228875002824","NA","21641.813958005514","31112.503791984636","NA","24832.08820800064","6672.130750026554","96216.46712499205","NA","NA","96720.61283298535","32886.6483750171","6730.252832989208","NA","NA","NA","NA","NA","NA","NA","NA","NA","27892.967041989323","NA","96720.77137499582","33993.929749995004","96207.99712499138","NA","32877.32541700825","NA","27892.178417008836","99539.08058302477","NA","25762.44175003376","NA","NA","New experiment","13","53006.69087393908","19","1024"
"70","NA","70","2839","2839","#3d3846","psycho","NA","1","undefined","undefined","1","right","0","0","0","0","0","0","0","19","NA","0","19","0","0","NA","NA","NA","0","NA","NA","NA","NA","NA","0","NA","19","0","19","0","0","0","0","19","0","0","0","NA","Sun Oct 15 15:48:50 2023","20","The main experiment item","yes","CogPsy_Assignment_With_Instruction.osexp","/Users/andrasjoos/Documents/AI Masters/Period 1/Cognitive Psychology/Research project","no","mono","no","18","no","white","no","Student","yes","768","/Users/andrasjoos/Documents/AI Masters/Period 1/Cognitive Psychology/Research project/results/subject-2.csv","real","Melodramatic Milgram","4.0.5","photo","right","right","NA","space","left","NA","right","3790.127541986294","800.5359169910662","NA","1105.2499579964206","14556.750709016342","NA","3790.127541986294","NA","NA","2","real_20","1024","2","48000","-16","experiment","2","even","25763.228875002824","NA","21641.813958005514","31112.503791984636","NA","24832.08820800064","6672.130750026554","99704.96825000737","NA","NA","100211.23104199069","32886.6483750171","6730.252832989208","NA","NA","NA","NA","NA","NA","NA","NA","NA","27892.967041989323","NA","100211.41520800302","33993.929749995004","99675.26758299209","NA","32877.32541700825","NA","27892.178417008836","104003.78812500276","NA","25762.44175003376","NA","NA","New experiment","14","56796.81841592537","20","1024"
"71","NA","71","2819","2819","#3d3846","psycho","NA","1","undefined","undefined","1","left","0","0","0","0","0","0","0","20","NA","0","20","0","0","NA","NA","NA","0","NA","NA","NA","NA","NA","0","NA","20","0","20","0","0","0","0","20","0","0","0","NA","Sun Oct 15 15:48:50 2023","50","The main experiment item","yes","CogPsy_Assignment_With_Instruction.osexp","/Users/andrasjoos/Documents/AI Masters/Period 1/Cognitive Psychology/Research project","no","mono","no","18","no","white","no","Student","yes","768","/Users/andrasjoos/Documents/AI Masters/Period 1/Cognitive Psychology/Research project/results/subject-2.csv","fake","Melodramatic Milgram","4.0.5","PurpleDenomination","left","right","NA","space","left","NA","left","2413.054790988099","800.5359169910662","NA","1105.2499579964206","14556.750709016342","NA","2413.054790988099","NA","NA","2","fake_2_50","1024","2","48000","-16","experiment","2","even","25763.228875002824","NA","21641.813958005514","31112.503791984636","NA","24832.08820800064","6672.130750026554","104209.36400000937","NA","NA","104716.2878329982","32886.6483750171","6730.252832989208","NA","NA","NA","NA","NA","NA","NA","NA","NA","27892.967041989323","NA","104716.48504200857","33993.929749995004","104173.87308302568","NA","32877.32541700825","NA","27892.178417008836","107133.36420798441","NA","25762.44175003376","NA","NA","New experiment","15","59209.87320691347","21","1024"
"68","NA","68","2761","2761","#3d3846","psycho","NA","0","undefined","undefined","0","right","0","0","0","0","0","0","0","21","NA","0","21","0","0","NA","NA","NA","0","NA","NA","NA","NA","NA","0","NA","21","0","21","0","0","0","0","21","0","0","0","NA","Sun Oct 15 15:48:50 2023","20","The main experiment item","yes","CogPsy_Assignment_With_Instruction.osexp","/Users/andrasjoos/Documents/AI Masters/Period 1/Cognitive Psychology/Research project","no","mono","no","18","no","white","no","Student","yes","768","/Users/andrasjoos/Documents/AI Masters/Period 1/Cognitive Psychology/Research project/results/subject-2.csv","real","Melodramatic Milgram","4.0.5","genuine","left","right","NA","space","left","NA","left","1544.4279160001315","800.5359169910662","NA","1105.2499579964206","14556.750709016342","NA","1544.4279160001315","NA","NA","2","real_20","1024","2","48000","-16","experiment","2","even","25763.228875002824","NA","21641.813958005514","31112.503791984636","NA","24832.08820800064","6672.130750026554","107246.2659170269","NA","NA","107751.00029201712","32886.6483750171","6730.252832989208","NA","NA","NA","NA","NA","NA","NA","NA","NA","27892.967041989323","NA","107751.17779202992","33993.929749995004","107235.86208303459","NA","32877.32541700825","NA","27892.178417008836","109297.13937500492","NA","25762.44175003376","NA","NA","New experiment","15","60754.3011229136","22","1024"
"69","NA","69","2698","2698","#3d3846","psycho","NA","1","undefined","undefined","1","left","0","0","0","0","0","0","0","22","NA","0","22","0","0","NA","NA","NA","0","NA","NA","NA","NA","NA","0","NA","22","0","22","0","0","0","0","22","0","0","0","NA","Sun Oct 15 15:48:50 2023","50","The main experiment item","yes","CogPsy_Assignment_With_Instruction.osexp","/Users/andrasjoos/Documents/AI Masters/Period 1/Cognitive Psychology/Research project","no","mono","no","18","no","white","no","Student","yes","768","/Users/andrasjoos/Documents/AI Masters/Period 1/Cognitive Psychology/Research project/results/subject-2.csv","fake","Melodramatic Milgram","4.0.5","PurpleDenomination3","left","right","NA","space","left","NA","left","1321.7685829731636","800.5359169910662","NA","1105.2499579964206","14556.750709016342","NA","1321.7685829731636","NA","NA","2","fake_2_50","1024","2","48000","-16","experiment","2","even","25763.228875002824","NA","21641.813958005514","31112.503791984636","NA","24832.08820800064","6672.130750026554","109421.8783749966","NA","NA","109926.94329202641","32886.6483750171","6730.252832989208","NA","NA","NA","NA","NA","NA","NA","NA","NA","27892.967041989323","NA","109927.13641701266","33993.929749995004","109407.01162500773","NA","32877.32541700825","NA","27892.178417008836","111251.81337498361","NA","25762.44175003376","NA","NA","New experiment","16","62076.069705886766","23","1024"
"70","NA","70","2614","2614","#3d3846","psycho","NA","1","undefined","undefined","1","left","0","0","0","0","0","0","0","23","NA","0","23","0","0","NA","NA","NA","0","NA","NA","NA","NA","NA","0","NA","23","0","23","0","0","0","0","23","0","0","0","NA","Sun Oct 15 15:48:50 2023","20","The main experiment item","yes","CogPsy_Assignment_With_Instruction.osexp","/Users/andrasjoos/Documents/AI Masters/Period 1/Cognitive Psychology/Research project","no","mono","no","18","no","white","no","Student","yes","768","/Users/andrasjoos/Documents/AI Masters/Period 1/Cognitive Psychology/Research project/results/subject-2.csv","fake","Melodramatic Milgram","4.0.5","BadInk","left","right","NA","space","left","NA","left","676.2168750283308","800.5359169910662","NA","1105.2499579964206","14556.750709016342","NA","676.2168750283308","NA","NA","2","fake_20","1024","2","48000","-16","experiment","2","even","25763.228875002824","NA","21641.813958005514","31112.503791984636","NA","24832.08820800064","6672.130750026554","111373.62000002759","NA","NA","111878.21016699309","32886.6483750171","6730.252832989208","NA","NA","NA","NA","NA","NA","NA","NA","NA","27892.967041989323","NA","111878.38062498486","33993.929749995004","111365.84629199933","NA","32877.32541700825","NA","27892.178417008836","112556.10354203964","NA","25762.44175003376","NA","NA","New experiment","17","62752.2865809151","24","1024"
"72","NA","72","2542","2542","#3d3846","psycho","NA","1","undefined","undefined","1","left","0","0","0","0","0","0","0","24","NA","0","24","0","0","NA","NA","NA","0","NA","NA","NA","NA","NA","0","NA","24","0","24","0","0","0","0","24","0","0","0","NA","Sun Oct 15 15:48:50 2023","20","The main experiment item","yes","CogPsy_Assignment_With_Instruction.osexp","/Users/andrasjoos/Documents/AI Masters/Period 1/Cognitive Psychology/Research project","no","mono","no","18","no","white","no","Student","yes","768","/Users/andrasjoos/Documents/AI Masters/Period 1/Cognitive Psychology/Research project/results/subject-2.csv","fake","Melodramatic Milgram","4.0.5","BrownDenomination","left","right","NA","space","left","NA","left","803.6312920157798","800.5359169910662","NA","1105.2499579964206","14556.750709016342","NA","803.6312920157798","NA","NA","2","fake_20","1024","2","48000","-16","experiment","2","even","25763.228875002824","NA","21641.813958005514","31112.503791984636","NA","24832.08820800064","6672.130750026554","112672.42975003319","NA","NA","113177.19600000419","32886.6483750171","6730.252832989208","NA","NA","NA","NA","NA","NA","NA","NA","NA","27892.967041989323","NA","113177.37724998733","33993.929749995004","112666.98375000851","NA","32877.32541700825","NA","27892.178417008836","113982.50400001416","NA","25762.44175003376","NA","NA","New experiment","18","63555.91787293088","25","1024"
"73","NA","73","2509","2509","#3d3846","psycho","NA","1","undefined","undefined","1","left","0","0","0","0","0","0","0","25","NA","0","25","0","0","NA","NA","NA","0","NA","NA","NA","NA","NA","0","NA","25","0","25","0","0","0","0","25","0","0","0","NA","Sun Oct 15 15:48:50 2023","20","The main experiment item","yes","CogPsy_Assignment_With_Instruction.osexp","/Users/andrasjoos/Documents/AI Masters/Period 1/Cognitive Psychology/Research project","no","mono","no","18","no","white","no","Student","yes","768","/Users/andrasjoos/Documents/AI Masters/Period 1/Cognitive Psychology/Research project/results/subject-2.csv","fake","Melodramatic Milgram","4.0.5","DullHologram2","left","right","NA","space","left","NA","left","1687.9007910029031","800.5359169910662","NA","1105.2499579964206","14556.750709016342","NA","1687.9007910029031","NA","NA","2","fake_20","1024","2","48000","-16","experiment","2","even","25763.228875002824","NA","21641.813958005514","31112.503791984636","NA","24832.08820800064","6672.130750026554","114096.51833301177","NA","NA","114601.03687498486","32886.6483750171","6730.252832989208","NA","NA","NA","NA","NA","NA","NA","NA","NA","27892.967041989323","NA","114601.19216702878","33993.929749995004","114091.26408299198","NA","32877.32541700825","NA","27892.178417008836","116290.52295803558","NA","25762.44175003376","NA","NA","New experiment","19","65243.81866393378","26","1024"
"70","NA","70","2492","2492","#3d3846","psycho","NA","0","undefined","undefined","0","right","0","0","0","0","0","0","0","26","NA","0","26","0","0","NA","NA","NA","0","NA","NA","NA","NA","NA","0","NA","26","0","26","0","0","0","0","26","0","0","0","NA","Sun Oct 15 15:48:50 2023","50","The main experiment item","yes","CogPsy_Assignment_With_Instruction.osexp","/Users/andrasjoos/Documents/AI Masters/Period 1/Cognitive Psychology/Research project","no","mono","no","18","no","white","no","Student","yes","768","/Users/andrasjoos/Documents/AI Masters/Period 1/Cognitive Psychology/Research project/results/subject-2.csv","real","Melodramatic Milgram","4.0.5","genuine","left","right","NA","space","left","NA","left","2040.738666022662","800.5359169910662","NA","1105.2499579964206","14556.750709016342","NA","2040.738666022662","NA","NA","2","real_20","1024","2","48000","-16","experiment","2","even","25763.228875002824","NA","21641.813958005514","31112.503791984636","NA","24832.08820800064","6672.130750026554","116380.20595803391","NA","NA","116884.67954203952","32886.6483750171","6730.252832989208","NA","NA","NA","NA","NA","NA","NA","NA","NA","27892.967041989323","NA","116884.83691698639","33993.929749995004","116372.12404201273","NA","32877.32541700825","NA","27892.178417008836","118927.79720801627","NA","25762.44175003376","NA","NA","New experiment","19","67284.55732995644","27","1024"
"67","NA","67","2466","2466","#3d3846","psycho","NA","0","undefined","undefined","0","right","0","0","0","0","0","0","0","27","NA","0","27","0","0","NA","NA","NA","0","NA","NA","NA","NA","NA","0","NA","27","0","27","0","0","0","0","27","0","0","0","NA","Sun Oct 15 15:48:50 2023","20","The main experiment item","yes","CogPsy_Assignment_With_Instruction.osexp","/Users/andrasjoos/Documents/AI Masters/Period 1/Cognitive Psychology/Research project","no","mono","no","18","no","white","no","Student","yes","768","/Users/andrasjoos/Documents/AI Masters/Period 1/Cognitive Psychology/Research project/results/subject-2.csv","real","Melodramatic Milgram","4.0.5","genuine","left","right","NA","space","left","NA","left","1782.3897909838706","800.5359169910662","NA","1105.2499579964206","14556.750709016342","NA","1782.3897909838706","NA","NA","2","real_20","1024","2","48000","-16","experiment","2","even","25763.228875002824","NA","21641.813958005514","31112.503791984636","NA","24832.08820800064","6672.130750026554","119022.14870799799","NA","NA","119526.94995800266","32886.6483750171","6730.252832989208","NA","NA","NA","NA","NA","NA","NA","NA","NA","27892.967041989323","NA","119527.10629202193","33993.929749995004","119013.12258298276","NA","32877.32541700825","NA","27892.178417008836","121311.0958749894","NA","25762.44175003376","NA","NA","New experiment","19","69066.94712094031","28","1024"
"65","NA","65","2439","2439","#3d3846","psycho","NA","0","undefined","undefined","0","left","0","0","0","0","0","0","0","28","NA","0","28","0","0","NA","NA","NA","0","NA","NA","NA","NA","NA","0","NA","28","0","28","0","0","0","0","28","0","0","0","NA","Sun Oct 15 15:48:50 2023","50","The main experiment item","yes","CogPsy_Assignment_With_Instruction.osexp","/Users/andrasjoos/Documents/AI Masters/Period 1/Cognitive Psychology/Research project","no","mono","no","18","no","white","no","Student","yes","768","/Users/andrasjoos/Documents/AI Masters/Period 1/Cognitive Psychology/Research project/results/subject-2.csv","fake","Melodramatic Milgram","4.0.5","PurpleDenomination3","right","right","NA","space","left","NA","right","1667.7704580361024","800.5359169910662","NA","1105.2499579964206","14556.750709016342","NA","1667.7704580361024","NA","NA","2","fake_2_50","1024","2","48000","-16","experiment","2","even","25763.228875002824","NA","21641.813958005514","31112.503791984636","NA","24832.08820800064","6672.130750026554","121434.92879200494","NA","NA","121939.4964579842","32886.6483750171","6730.252832989208","NA","NA","NA","NA","NA","NA","NA","NA","NA","27892.967041989323","NA","121939.65575000038","33993.929749995004","121426.85674998211","NA","32877.32541700825","NA","27892.178417008836","123608.90862502856","NA","25762.44175003376","NA","NA","New experiment","19","70734.71757897642","29","1024"
"63","NA","63","2382","2382","#3d3846","psycho","NA","0","undefined","undefined","0","right","0","0","0","0","0","0","0","29","NA","0","29","0","0","NA","NA","NA","0","NA","NA","NA","NA","NA","0","NA","29","0","29","0","0","0","0","29","0","0","0","NA","Sun Oct 15 15:48:50 2023","50","The main experiment item","yes","CogPsy_Assignment_With_Instruction.osexp","/Users/andrasjoos/Documents/AI Masters/Period 1/Cognitive Psychology/Research project","no","mono","no","18","no","white","no","Student","yes","768","/Users/andrasjoos/Documents/AI Masters/Period 1/Cognitive Psychology/Research project/results/subject-2.csv","real","Melodramatic Milgram","4.0.5","photo","left","right","NA","space","left","NA","left","728.8736249902286","800.5359169910662","NA","1105.2499579964206","14556.750709016342","NA","728.8736249902286","NA","NA","2","real_50","1024","2","48000","-16","experiment","2","even","25763.228875002824","NA","21641.813958005514","31112.503791984636","NA","24832.08820800064","6672.130750026554","123754.37012501061","NA","NA","124259.29354201071","32886.6483750171","6730.252832989208","NA","NA","NA","NA","NA","NA","NA","NA","NA","27892.967041989323","NA","124259.47450002423","33993.929749995004","123744.90175000392","NA","32877.32541700825","NA","27892.178417008836","124989.82750001596","NA","25762.44175003376","NA","NA","New experiment","19","71463.59120396664","30","1024"
"61","NA","61","2341","2341","#3d3846","psycho","NA","0","undefined","undefined","0","right","0","0","0","0","0","0","0","30","NA","0","30","0","0","NA","NA","NA","0","NA","NA","NA","NA","NA","0","NA","30","0","30","0","0","0","0","30","0","0","0","NA","Sun Oct 15 15:48:50 2023","50","The main experiment item","yes","CogPsy_Assignment_With_Instruction.osexp","/Users/andrasjoos/Documents/AI Masters/Period 1/Cognitive Psychology/Research project","no","mono","no","18","no","white","no","Student","yes","768","/Users/andrasjoos/Documents/AI Masters/Period 1/Cognitive Psychology/Research project/results/subject-2.csv","real","Melodramatic Milgram","4.0.5","photo_2","left","right","NA","space","left","NA","left","1114.609957963694","800.5359169910662","NA","1105.2499579964206","14556.750709016342","NA","1114.609957963694","NA","NA","2","real_50","1024","2","48000","-16","experiment","2","even","25763.228875002824","NA","21641.813958005514","31112.503791984636","NA","24832.08820800064","6672.130750026554","125094.06445798231","NA","NA","125598.44475000864","32886.6483750171","6730.252832989208","NA","NA","NA","NA","NA","NA","NA","NA","NA","27892.967041989323","NA","125598.61279203324","33993.929749995004","125088.8168750098","NA","32877.32541700825","NA","27892.178417008836","126714.75104201818","NA","25762.44175003376","NA","NA","New experiment","19","72578.20116193034","31","1024"
"62","NA","62","2291","2291","#3d3846","psycho","NA","1","undefined","undefined","1","left","0","0","0","0","0","0","0","31","NA","0","31","0","0","NA","NA","NA","0","NA","NA","NA","NA","NA","0","NA","31","0","31","0","0","0","0","31","0","0","0","NA","Sun Oct 15 15:48:50 2023","50","The main experiment item","yes","CogPsy_Assignment_With_Instruction.osexp","/Users/andrasjoos/Documents/AI Masters/Period 1/Cognitive Psychology/Research project","no","mono","no","18","no","white","no","Student","yes","768","/Users/andrasjoos/Documents/AI Masters/Period 1/Cognitive Psychology/Research project/results/subject-2.csv","fake","Melodramatic Milgram","4.0.5","NoNumOnThread_BlurryWatermark","left","right","NA","space","left","NA","left","749.1442080354318","800.5359169910662","NA","1105.2499579964206","14556.750709016342","NA","749.1442080354318","NA","NA","2","fake_2_50","1024","2","48000","-16","experiment","2","even","25763.228875002824","NA","21641.813958005514","31112.503791984636","NA","24832.08820800064","6672.130750026554","126836.04387502419","NA","NA","127341.24612499727","32886.6483750171","6730.252832989208","NA","NA","NA","NA","NA","NA","NA","NA","NA","27892.967041989323","NA","127341.44966700114","33993.929749995004","126827.64650002355","NA","32877.32541700825","NA","27892.178417008836","128092.17012498993","NA","25762.44175003376","NA","NA","New experiment","20","73327.34536996577","32","1024"
"63","NA","63","2372","2372","#3d3846","psycho","NA","1","undefined","undefined","1","left","0","0","0","0","0","0","0","32","NA","0","32","0","0","NA","NA","NA","0","NA","NA","NA","NA","NA","0","NA","32","0","32","0","0","0","0","32","0","0","0","NA","Sun Oct 15 15:48:50 2023","20","The main experiment item","yes","CogPsy_Assignment_With_Instruction.osexp","/Users/andrasjoos/Documents/AI Masters/Period 1/Cognitive Psychology/Research project","no","mono","no","18","no","white","no","Student","yes","768","/Users/andrasjoos/Documents/AI Masters/Period 1/Cognitive Psychology/Research project/results/subject-2.csv","fake","Melodramatic Milgram","4.0.5","PurpleDenomination","left","right","NA","space","left","NA","left","4953.325375041459","800.5359169910662","NA","1105.2499579964206","14556.750709016342","NA","4953.325375041459","NA","NA","2","fake_20","1024","2","48000","-16","experiment","2","even","25763.228875002824","NA","21641.813958005514","31112.503791984636","NA","24832.08820800064","6672.130750026554","128209.99204198597","NA","NA","128715.96400003182","32886.6483750171","6730.252832989208","NA","NA","NA","NA","NA","NA","NA","NA","NA","27892.967041989323","NA","128716.23029198963","33993.929749995004","128204.75829200586","NA","32877.32541700825","NA","27892.178417008836","133672.77195799397","NA","25762.44175003376","NA","NA","New experiment","21","78280.67074500723","33","1024"
"64","NA","64","2324","2324","#3d3846","psycho","NA","1","undefined","undefined","1","left","0","0","0","0","0","0","0","33","NA","0","33","0","0","NA","NA","NA","0","NA","NA","NA","NA","NA","0","NA","33","0","33","0","0","0","0","33","0","0","0","NA","Sun Oct 15 15:48:50 2023","20","The main experiment item","yes","CogPsy_Assignment_With_Instruction.osexp","/Users/andrasjoos/Documents/AI Masters/Period 1/Cognitive Psychology/Research project","no","mono","no","18","no","white","no","Student","yes","768","/Users/andrasjoos/Documents/AI Masters/Period 1/Cognitive Psychology/Research project/results/subject-2.csv","fake","Melodramatic Milgram","4.0.5","bottom_left","left","right","NA","space","left","NA","left","747.9667500010692","800.5359169910662","NA","1105.2499579964206","14556.750709016342","NA","747.9667500010692","NA","NA","2","fake_1_20","1024","2","48000","-16","experiment","2","even","25763.228875002824","NA","21641.813958005514","31112.503791984636","NA","24832.08820800064","6672.130750026554","133888.02891701926","NA","NA","134394.2222080077","32886.6483750171","6730.252832989208","NA","NA","NA","NA","NA","NA","NA","NA","NA","27892.967041989323","NA","134394.41229199292","33993.929749995004","133839.1718750354","NA","32877.32541700825","NA","27892.178417008836","135143.89720803592","NA","25762.44175003376","NA","NA","New experiment","22","79028.6374950083","34","1024"
"65","NA","65","2326","2326","#3d3846","psycho","NA","1","undefined","undefined","1","left","0","0","0","0","0","0","0","34","NA","0","34","0","0","NA","NA","NA","0","NA","NA","NA","NA","NA","0","NA","34","0","34","0","0","0","0","34","0","0","0","NA","Sun Oct 15 15:48:50 2023","50","The main experiment item","yes","CogPsy_Assignment_With_Instruction.osexp","/Users/andrasjoos/Documents/AI Masters/Period 1/Cognitive Psychology/Research project","no","mono","no","18","no","white","no","Student","yes","768","/Users/andrasjoos/Documents/AI Masters/Period 1/Cognitive Psychology/Research project/results/subject-2.csv","fake","Melodramatic Milgram","4.0.5","NoNumOnThread_BlurryWatermark","left","right","NA","space","left","NA","left","2382.610875007231","800.5359169910662","NA","1105.2499579964206","14556.750709016342","NA","2382.610875007231","NA","NA","2","fake_2_50","1024","2","48000","-16","experiment","2","even","25763.228875002824","NA","21641.813958005514","31112.503791984636","NA","24832.08820800064","6672.130750026554","135259.56166698597","NA","NA","135764.0781670343","32886.6483750171","6730.252832989208","NA","NA","NA","NA","NA","NA","NA","NA","NA","27892.967041989323","NA","135764.2397080199","33993.929749995004","135254.1278330027","NA","32877.32541700825","NA","27892.178417008836","138148.35904201027","NA","25762.44175003376","NA","NA","New experiment","23","81411.24837001553","35","1024"
"66","NA","66","2297","2297","#3d3846","psycho","NA","1","undefined","undefined","1","left","0","0","0","0","0","0","0","35","NA","0","35","0","0","NA","NA","NA","0","NA","NA","NA","NA","NA","0","NA","35","0","35","0","0","0","0","35","0","0","0","NA","Sun Oct 15 15:48:50 2023","20","The main experiment item","yes","CogPsy_Assignment_With_Instruction.osexp","/Users/andrasjoos/Documents/AI Masters/Period 1/Cognitive Psychology/Research project","no","mono","no","18","no","white","no","Student","yes","768","/Users/andrasjoos/Documents/AI Masters/Period 1/Cognitive Psychology/Research project/results/subject-2.csv","fake","Melodramatic Milgram","4.0.5","silver_strip","left","right","NA","space","left","NA","left","1303.403125028126","800.5359169910662","NA","1105.2499579964206","14556.750709016342","NA","1303.403125028126","NA","NA","2","fake_2_20","1024","2","48000","-16","experiment","2","even","25763.228875002824","NA","21641.813958005514","31112.503791984636","NA","24832.08820800064","6672.130750026554","138251.11866701627","NA","NA","138755.97845803713","32886.6483750171","6730.252832989208","NA","NA","NA","NA","NA","NA","NA","NA","NA","27892.967041989323","NA","138756.14904199028","33993.929749995004","138241.15154199535","NA","32877.32541700825","NA","27892.178417008836","140061.42366700806","NA","25762.44175003376","NA","NA","New experiment","24","82714.65149504365","36","1024"
"67","NA","67","2277","2277","#3d3846","psycho","NA","1","undefined","undefined","1","left","0","0","0","0","0","0","0","36","NA","0","36","0","0","NA","NA","NA","0","NA","NA","NA","NA","NA","0","NA","36","0","36","0","0","0","0","36","0","0","0","NA","Sun Oct 15 15:48:50 2023","50","The main experiment item","yes","CogPsy_Assignment_With_Instruction.osexp","/Users/andrasjoos/Documents/AI Masters/Period 1/Cognitive Psychology/Research project","no","mono","no","18","no","white","no","Student","yes","768","/Users/andrasjoos/Documents/AI Masters/Period 1/Cognitive Psychology/Research project/results/subject-2.csv","fake","Melodramatic Milgram","4.0.5","GreyDenomination","left","right","NA","space","left","NA","left","1540.3004999971017","800.5359169910662","NA","1105.2499579964206","14556.750709016342","NA","1540.3004999971017","NA","NA","2","fake_2_50","1024","2","48000","-16","experiment","2","even","25763.228875002824","NA","21641.813958005514","31112.503791984636","NA","24832.08820800064","6672.130750026554","140180.14770798618","NA","NA","140684.960625018","32886.6483750171","6730.252832989208","NA","NA","NA","NA","NA","NA","NA","NA","NA","27892.967041989323","NA","140685.1107919938","33993.929749995004","140172.00274998322","NA","32877.32541700825","NA","27892.178417008836","142227.25479200017","NA","25762.44175003376","NA","NA","New experiment","25","84254.95199504076","37","1024"
"68","NA","68","2426","2426","#3d3846","psycho","NA","1","undefined","undefined","1","left","0","0","0","0","0","0","0","37","NA","0","37","0","0","NA","NA","NA","0","NA","NA","NA","NA","NA","0","NA","37","0","37","0","0","0","0","37","0","0","0","NA","Sun Oct 15 15:48:50 2023","50","The main experiment item","yes","CogPsy_Assignment_With_Instruction.osexp","/Users/andrasjoos/Documents/AI Masters/Period 1/Cognitive Psychology/Research project","no","mono","no","18","no","white","no","Student","yes","768","/Users/andrasjoos/Documents/AI Masters/Period 1/Cognitive Psychology/Research project/results/subject-2.csv","fake","Melodramatic Milgram","4.0.5","PurpleDenomination","left","right","NA","space","left","NA","left","7962.441749987192","800.5359169910662","NA","1105.2499579964206","14556.750709016342","NA","7962.441749987192","NA","NA","2","fake_2_50","1024","2","48000","-16","experiment","2","even","25763.228875002824","NA","21641.813958005514","31112.503791984636","NA","24832.08820800064","6672.130750026554","142361.1859580269","NA","NA","142866.75816698698","32886.6483750171","6730.252832989208","NA","NA","NA","NA","NA","NA","NA","NA","NA","27892.967041989323","NA","142866.97425000602","33993.929749995004","142352.29083301965","NA","32877.32541700825","NA","27892.178417008836","150831.11450000433","NA","25762.44175003376","NA","NA","New experiment","26","92217.39374502795","38","1024"
"69","NA","69","2394","2394","#3d3846","psycho","NA","1","undefined","undefined","1","left","0","0","0","0","0","0","0","38","NA","0","38","0","0","NA","NA","NA","0","NA","NA","NA","NA","NA","0","NA","38","0","38","0","0","0","0","38","0","0","0","NA","Sun Oct 15 15:48:50 2023","20","The main experiment item","yes","CogPsy_Assignment_With_Instruction.osexp","/Users/andrasjoos/Documents/AI Masters/Period 1/Cognitive Psychology/Research project","no","mono","no","18","no","white","no","Student","yes","768","/Users/andrasjoos/Documents/AI Masters/Period 1/Cognitive Psychology/Research project/results/subject-2.csv","fake","Melodramatic Milgram","4.0.5","silver_strip","left","right","NA","space","left","NA","left","1150.3164589521475","800.5359169910662","NA","1105.2499579964206","14556.750709016342","NA","1150.3164589521475","NA","NA","2","fake_2_20","1024","2","48000","-16","experiment","2","even","25763.228875002824","NA","21641.813958005514","31112.503791984636","NA","24832.08820800064","6672.130750026554","150938.48487501964","NA","NA","151444.43033303833","32886.6483750171","6730.252832989208","NA","NA","NA","NA","NA","NA","NA","NA","NA","27892.967041989323","NA","151444.6242080303","33993.929749995004","150923.17270801868","NA","32877.32541700825","NA","27892.178417008836","152596.5265420382","NA","25762.44175003376","NA","NA","New experiment","27","93367.7102039801","39","1024"
"70","NA","70","2373","2373","#3d3846","psycho","NA","1","undefined","undefined","1","left","0","0","0","0","0","0","0","39","NA","0","39","0","0","NA","NA","NA","0","NA","NA","NA","NA","NA","0","NA","39","0","39","0","0","0","0","39","0","0","0","NA","Sun Oct 15 15:48:50 2023","50","The main experiment item","yes","CogPsy_Assignment_With_Instruction.osexp","/Users/andrasjoos/Documents/AI Masters/Period 1/Cognitive Psychology/Research project","no","mono","no","18","no","white","no","Student","yes","768","/Users/andrasjoos/Documents/AI Masters/Period 1/Cognitive Psychology/Research project/results/subject-2.csv","fake","Melodramatic Milgram","4.0.5","GreyDenomination","left","right","NA","space","left","NA","left","1559.5999169745483","800.5359169910662","NA","1105.2499579964206","14556.750709016342","NA","1559.5999169745483","NA","NA","2","fake_2_50","1024","2","48000","-16","experiment","2","even","25763.228875002824","NA","21641.813958005514","31112.503791984636","NA","24832.08820800064","6672.130750026554","152720.07345798193","NA","NA","153225.25416698772","32886.6483750171","6730.252832989208","NA","NA","NA","NA","NA","NA","NA","NA","NA","27892.967041989323","NA","153225.43400002178","33993.929749995004","152712.17754203826","NA","32877.32541700825","NA","27892.178417008836","154787.08937502233","NA","25762.44175003376","NA","NA","New experiment","28","94927.31012095464","40","1024"
"70","NA","70","2334","2334","#3d3846","psycho","NA","1","undefined","undefined","1","left","0","0","0","0","0","0","0","40","NA","0","40","0","0","NA","NA","NA","0","NA","NA","NA","NA","NA","0","NA","40","0","40","0","0","0","0","40","0","0","0","NA","Sun Oct 15 15:48:50 2023","20","The main experiment item","yes","CogPsy_Assignment_With_Instruction.osexp","/Users/andrasjoos/Documents/AI Masters/Period 1/Cognitive Psychology/Research project","no","mono","no","18","no","white","no","Student","yes","768","/Users/andrasjoos/Documents/AI Masters/Period 1/Cognitive Psychology/Research project/results/subject-2.csv","fake","Melodramatic Milgram","4.0.5","DullHologram","left","right","NA","space","left","NA","left","806.0819170204923","800.5359169910662","NA","1105.2499579964206","14556.750709016342","NA","806.0819170204923","NA","NA","2","fake_20","1024","2","48000","-16","experiment","2","even","25763.228875002824","NA","21641.813958005514","31112.503791984636","NA","24832.08820800064","6672.130750026554","154926.6092919861","NA","NA","155431.10387498746","32886.6483750171","6730.252832989208","NA","NA","NA","NA","NA","NA","NA","NA","NA","27892.967041989323","NA","155431.33900000248","33993.929749995004","154916.54908302007","NA","32877.32541700825","NA","27892.178417008836","156239.23137498787","NA","25762.44175003376","NA","NA","New experiment","29","95733.39203797514","41","1024"
"71","NA","71","2313","2313","#3d3846","psycho","NA","1","undefined","undefined","1","right","0","0","0","0","0","0","0","41","NA","0","41","0","0","NA","NA","NA","0","NA","NA","NA","NA","NA","0","NA","41","0","41","0","0","0","0","41","0","0","0","NA","Sun Oct 15 15:48:50 2023","20","The main experiment item","yes","CogPsy_Assignment_With_Instruction.osexp","/Users/andrasjoos/Documents/AI Masters/Period 1/Cognitive Psychology/Research project","no","mono","no","18","no","white","no","Student","yes","768","/Users/andrasjoos/Documents/AI Masters/Period 1/Cognitive Psychology/Research project/results/subject-2.csv","real","Melodramatic Milgram","4.0.5","photo","right","right","NA","space","left","NA","right","1454.1938749607652","800.5359169910662","NA","1105.2499579964206","14556.750709016342","NA","1454.1938749607652","NA","NA","2","real_20","1024","2","48000","-16","experiment","2","even","25763.228875002824","NA","21641.813958005514","31112.503791984636","NA","24832.08820800064","6672.130750026554","156387.01420801226","NA","NA","156891.67933299905","32886.6483750171","6730.252832989208","NA","NA","NA","NA","NA","NA","NA","NA","NA","27892.967041989323","NA","156891.84004202252","33993.929749995004","156378.7260830286","NA","32877.32541700825","NA","27892.178417008836","158347.5027080276","NA","25762.44175003376","NA","NA","New experiment","30","97187.5859129359","42","1024"
"69","NA","69","2310","2310","#3d3846","psycho","NA","0","undefined","undefined","0","right","0","0","0","0","0","0","0","42","NA","0","42","0","0","NA","NA","NA","0","NA","NA","NA","NA","NA","0","NA","42","0","42","0","0","0","0","42","0","0","0","NA","Sun Oct 15 15:48:50 2023","50","The main experiment item","yes","CogPsy_Assignment_With_Instruction.osexp","/Users/andrasjoos/Documents/AI Masters/Period 1/Cognitive Psychology/Research project","no","mono","no","18","no","white","no","Student","yes","768","/Users/andrasjoos/Documents/AI Masters/Period 1/Cognitive Psychology/Research project/results/subject-2.csv","real","Melodramatic Milgram","4.0.5","genuine","left","right","NA","space","left","NA","left","2158.542125020176","800.5359169910662","NA","1105.2499579964206","14556.750709016342","NA","2158.542125020176","NA","NA","2","real_50","1024","2","48000","-16","experiment","2","even","25763.228875002824","NA","21641.813958005514","31112.503791984636","NA","24832.08820800064","6672.130750026554","158436.86454201816","NA","NA","158941.16662500892","32886.6483750171","6730.252832989208","NA","NA","NA","NA","NA","NA","NA","NA","NA","27892.967041989323","NA","158941.32712500868","33993.929749995004","158428.81337500876","NA","32877.32541700825","NA","27892.178417008836","161101.29858303117","NA","25762.44175003376","NA","NA","New experiment","30","99346.12803795608","43","1024"
"68","NA","68","2271","2271","#3d3846","psycho","NA","0","undefined","undefined","0","right","0","0","0","0","0","0","0","43","NA","0","43","0","0","NA","NA","NA","0","NA","NA","NA","NA","NA","0","NA","43","0","43","0","0","0","0","43","0","0","0","NA","Sun Oct 15 15:48:50 2023","50","The main experiment item","yes","CogPsy_Assignment_With_Instruction.osexp","/Users/andrasjoos/Documents/AI Masters/Period 1/Cognitive Psychology/Research project","no","mono","no","18","no","white","no","Student","yes","768","/Users/andrasjoos/Documents/AI Masters/Period 1/Cognitive Psychology/Research project/results/subject-2.csv","real","Melodramatic Milgram","4.0.5","photo","left","right","NA","space","left","NA","left","611.3847919623367","800.5359169910662","NA","1105.2499579964206","14556.750709016342","NA","611.3847919623367","NA","NA","2","real_50","1024","2","48000","-16","experiment","2","even","25763.228875002824","NA","21641.813958005514","31112.503791984636","NA","24832.08820800064","6672.130750026554","161221.65545803728","NA","NA","161726.543124998","32886.6483750171","6730.252832989208","NA","NA","NA","NA","NA","NA","NA","NA","NA","27892.967041989323","NA","161726.73762502382","33993.929749995004","161212.25854201475","NA","32877.32541700825","NA","27892.178417008836","162339.58462503506","NA","25762.44175003376","NA","NA","New experiment","30","99957.51282991841","44","1024"
"68","NA","68","2233","2233","#3d3846","psycho","NA","1","undefined","undefined","1","left","0","0","0","0","0","0","0","44","NA","0","44","0","0","NA","NA","NA","0","NA","NA","NA","NA","NA","0","NA","44","0","44","0","0","0","0","44","0","0","0","NA","Sun Oct 15 15:48:50 2023","50","The main experiment item","yes","CogPsy_Assignment_With_Instruction.osexp","/Users/andrasjoos/Documents/AI Masters/Period 1/Cognitive Psychology/Research project","no","mono","no","18","no","white","no","Student","yes","768","/Users/andrasjoos/Documents/AI Masters/Period 1/Cognitive Psychology/Research project/results/subject-2.csv","fake","Melodramatic Milgram","4.0.5","bottom_left","left","right","NA","space","left","NA","left","548.4925420023501","800.5359169910662","NA","1105.2499579964206","14556.750709016342","NA","548.4925420023501","NA","NA","2","fake_1_50","1024","2","48000","-16","experiment","2","even","25763.228875002824","NA","21641.813958005514","31112.503791984636","NA","24832.08820800064","6672.130750026554","162422.01733303955","NA","NA","162925.99629203323","32886.6483750171","6730.252832989208","NA","NA","NA","NA","NA","NA","NA","NA","NA","27892.967041989323","NA","162926.15120799746","33993.929749995004","162417.05083299894","NA","32877.32541700825","NA","27892.178417008836","163476.5937080374","NA","25762.44175003376","NA","NA","New experiment","31","100506.00537192076","45","1024"
"67","NA","67","2214","2214","#3d3846","psycho","NA","0","undefined","undefined","0","left","0","0","0","0","0","0","0","45","NA","0","45","0","0","NA","NA","NA","0","NA","NA","NA","NA","NA","0","NA","45","0","45","0","0","0","0","45","0","0","0","NA","Sun Oct 15 15:48:50 2023","20","The main experiment item","yes","CogPsy_Assignment_With_Instruction.osexp","/Users/andrasjoos/Documents/AI Masters/Period 1/Cognitive Psychology/Research project","no","mono","no","18","no","white","no","Student","yes","768","/Users/andrasjoos/Documents/AI Masters/Period 1/Cognitive Psychology/Research project/results/subject-2.csv","fake","Melodramatic Milgram","4.0.5","NoNumOnThread_BlurryWatermark","right","right","NA","space","left","NA","right","1361.5753750200383","800.5359169910662","NA","1105.2499579964206","14556.750709016342","NA","1361.5753750200383","NA","NA","2","fake_20","1024","2","48000","-16","experiment","2","even","25763.228875002824","NA","21641.813958005514","31112.503791984636","NA","24832.08820800064","6672.130750026554","163618.89037501533","NA","NA","164124.02987503447","32886.6483750171","6730.252832989208","NA","NA","NA","NA","NA","NA","NA","NA","NA","27892.967041989323","NA","164124.20812499477","33993.929749995004","163613.29879198456","NA","32877.32541700825","NA","27892.178417008836","165488.71912498726","NA","25762.44175003376","NA","NA","New experiment","31","101867.5807469408","46","1024"
"68","NA","68","2181","2181","#3d3846","psycho","NA","1","undefined","undefined","1","left","0","0","0","0","0","0","0","46","NA","0","46","0","0","NA","NA","NA","0","NA","NA","NA","NA","NA","0","NA","46","0","46","0","0","0","0","46","0","0","0","NA","Sun Oct 15 15:48:50 2023","50","The main experiment item","yes","CogPsy_Assignment_With_Instruction.osexp","/Users/andrasjoos/Documents/AI Masters/Period 1/Cognitive Psychology/Research project","no","mono","no","18","no","white","no","Student","yes","768","/Users/andrasjoos/Documents/AI Masters/Period 1/Cognitive Psychology/Research project/results/subject-2.csv","fake","Melodramatic Milgram","4.0.5","PurpleDenomination2","left","right","NA","space","left","NA","left","679.7358339536004","800.5359169910662","NA","1105.2499579964206","14556.750709016342","NA","679.7358339536004","NA","NA","2","fake_2_50","1024","2","48000","-16","experiment","2","even","25763.228875002824","NA","21641.813958005514","31112.503791984636","NA","24832.08820800064","6672.130750026554","165685.01062499126","NA","NA","166189.85883303685","32886.6483750171","6730.252832989208","NA","NA","NA","NA","NA","NA","NA","NA","NA","27892.967041989323","NA","166190.04570803372","33993.929749995004","165667.22070798278","NA","32877.32541700825","NA","27892.178417008836","166871.24766700435","NA","25762.44175003376","NA","NA","New experiment","32","102547.3165808944","47","1024"
"68","NA","68","2151","2151","#3d3846","psycho","NA","1","undefined","undefined","1","left","0","0","0","0","0","0","0","47","NA","0","47","0","0","NA","NA","NA","0","NA","NA","NA","NA","NA","0","NA","47","0","47","0","0","0","0","47","0","0","0","NA","Sun Oct 15 15:48:50 2023","20","The main experiment item","yes","CogPsy_Assignment_With_Instruction.osexp","/Users/andrasjoos/Documents/AI Masters/Period 1/Cognitive Psychology/Research project","no","mono","no","18","no","white","no","Student","yes","768","/Users/andrasjoos/Documents/AI Masters/Period 1/Cognitive Psychology/Research project/results/subject-2.csv","fake","Melodramatic Milgram","4.0.5","bottom_left","left","right","NA","space","left","NA","left","742.3897919943556","800.5359169910662","NA","1105.2499579964206","14556.750709016342","NA","742.3897919943556","NA","NA","2","fake_1_20","1024","2","48000","-16","experiment","2","even","25763.228875002824","NA","21641.813958005514","31112.503791984636","NA","24832.08820800064","6672.130750026554","166959.94470798178","NA","NA","167464.8512499989","32886.6483750171","6730.252832989208","NA","NA","NA","NA","NA","NA","NA","NA","NA","27892.967041989323","NA","167465.01470799558","33993.929749995004","166954.38933302648","NA","32877.32541700825","NA","27892.178417008836","168208.8791670394","NA","25762.44175003376","NA","NA","New experiment","33","103289.70637288876","48","1024"
"67","NA","67","2125","2125","#3d3846","psycho","NA","0","undefined","undefined","0","left","0","0","0","0","0","0","0","48","NA","0","48","0","0","NA","NA","NA","0","NA","NA","NA","NA","NA","0","NA","48","0","48","0","0","0","0","48","0","0","0","NA","Sun Oct 15 15:48:50 2023","20","The main experiment item","yes","CogPsy_Assignment_With_Instruction.osexp","/Users/andrasjoos/Documents/AI Masters/Period 1/Cognitive Psychology/Research project","no","mono","no","18","no","white","no","Student","yes","768","/Users/andrasjoos/Documents/AI Masters/Period 1/Cognitive Psychology/Research project/results/subject-2.csv","fake","Melodramatic Milgram","4.0.5","NoNumOnThread_BlurryWatermark","right","right","NA","space","left","NA","right","863.7390000512823","800.5359169910662","NA","1105.2499579964206","14556.750709016342","NA","863.7390000512823","NA","NA","2","fake_20","1024","2","48000","-16","experiment","2","even","25763.228875002824","NA","21641.813958005514","31112.503791984636","NA","24832.08820800064","6672.130750026554","168349.48645799886","NA","NA","168854.6532500186","32886.6483750171","6730.252832989208","NA","NA","NA","NA","NA","NA","NA","NA","NA","27892.967041989323","NA","168854.8709169845","33993.929749995004","168343.25174998958","NA","32877.32541700825","NA","27892.178417008836","169720.11445800308","NA","25762.44175003376","NA","NA","New experiment","33","104153.44537294004","49","1024"
"68","NA","68","2150","2150","#3d3846","psycho","NA","1","undefined","undefined","1","left","0","0","0","0","0","0","0","49","NA","0","49","0","0","NA","NA","NA","0","NA","NA","NA","NA","NA","0","NA","49","0","49","0","0","0","0","49","0","0","0","NA","Sun Oct 15 15:48:50 2023","50","The main experiment item","yes","CogPsy_Assignment_With_Instruction.osexp","/Users/andrasjoos/Documents/AI Masters/Period 1/Cognitive Psychology/Research project","no","mono","no","18","no","white","no","Student","yes","768","/Users/andrasjoos/Documents/AI Masters/Period 1/Cognitive Psychology/Research project/results/subject-2.csv","fake","Melodramatic Milgram","4.0.5","silver_strip","left","right","NA","space","left","NA","left","3394.6321249823086","800.5359169910662","NA","1105.2499579964206","14556.750709016342","NA","3394.6321249823086","NA","NA","2","fake_2_50","1024","2","48000","-16","experiment","2","even","25763.228875002824","NA","21641.813958005514","31112.503791984636","NA","24832.08820800064","6672.130750026554","169807.73775000125","NA","NA","170312.53962498158","32886.6483750171","6730.252832989208","NA","NA","NA","NA","NA","NA","NA","NA","NA","27892.967041989323","NA","170312.72283301223","33993.929749995004","169802.7536669979","NA","32877.32541700825","NA","27892.178417008836","173710.3326250217","NA","25762.44175003376","NA","NA","New experiment","34","107548.07749792235","50","1024"
"68","NA","68","2126","2126","#3d3846","psycho","NA","1","undefined","undefined","1","left","0","0","0","0","0","0","0","50","NA","0","50","0","0","NA","NA","NA","0","NA","NA","NA","NA","NA","0","NA","50","0","50","0","0","0","0","50","0","0","0","NA","Sun Oct 15 15:48:50 2023","20","The main experiment item","yes","CogPsy_Assignment_With_Instruction.osexp","/Users/andrasjoos/Documents/AI Masters/Period 1/Cognitive Psychology/Research project","no","mono","no","18","no","white","no","Student","yes","768","/Users/andrasjoos/Documents/AI Masters/Period 1/Cognitive Psychology/Research project/results/subject-2.csv","fake","Melodramatic Milgram","4.0.5","BadInk","left","right","NA","space","left","NA","left","927.3241659975611","800.5359169910662","NA","1105.2499579964206","14556.750709016342","NA","927.3241659975611","NA","NA","2","fake_20","1024","2","48000","-16","experiment","2","even","25763.228875002824","NA","21641.813958005514","31112.503791984636","NA","24832.08820800064","6672.130750026554","173841.8130420032","NA","NA","174348.33354200236","32886.6483750171","6730.252832989208","NA","NA","NA","NA","NA","NA","NA","NA","NA","27892.967041989323","NA","174348.59416703694","33993.929749995004","173830.6909170351","NA","32877.32541700825","NA","27892.178417008836","175277.5376670179","NA","25762.44175003376","NA","NA","New experiment","35","108475.40166391991","51","1024"
"67","NA","67","2098","2098","#3d3846","psycho","NA","0","undefined","undefined","0","right","0","0","0","0","0","0","0","51","NA","0","51","0","0","NA","NA","NA","0","NA","NA","NA","NA","NA","0","NA","51","0","51","0","0","0","0","51","0","0","0","NA","Sun Oct 15 15:48:50 2023","20","The main experiment item","yes","CogPsy_Assignment_With_Instruction.osexp","/Users/andrasjoos/Documents/AI Masters/Period 1/Cognitive Psychology/Research project","no","mono","no","18","no","white","no","Student","yes","768","/Users/andrasjoos/Documents/AI Masters/Period 1/Cognitive Psychology/Research project/results/subject-2.csv","real","Melodramatic Milgram","4.0.5","genuine","left","right","NA","space","left","NA","left","664.6590000018477","800.5359169910662","NA","1105.2499579964206","14556.750709016342","NA","664.6590000018477","NA","NA","2","real_20","1024","2","48000","-16","experiment","2","even","25763.228875002824","NA","21641.813958005514","31112.503791984636","NA","24832.08820800064","6672.130750026554","175401.92079200642","NA","NA","175906.89700003713","32886.6483750171","6730.252832989208","NA","NA","NA","NA","NA","NA","NA","NA","NA","27892.967041989323","NA","175907.07920800196","33993.929749995004","175396.19645802304","NA","32877.32541700825","NA","27892.178417008836","176573.31816700753","NA","25762.44175003376","NA","NA","New experiment","35","109140.06066392176","52","1024"
"67","NA","67","2109","2109","#3d3846","psycho","NA","1","undefined","undefined","1","right","0","0","0","0","0","0","0","52","NA","0","52","0","0","NA","NA","NA","0","NA","NA","NA","NA","NA","0","NA","52","0","52","0","0","0","0","52","0","0","0","NA","Sun Oct 15 15:48:50 2023","20","The main experiment item","yes","CogPsy_Assignment_With_Instruction.osexp","/Users/andrasjoos/Documents/AI Masters/Period 1/Cognitive Psychology/Research project","no","mono","no","18","no","white","no","Student","yes","768","/Users/andrasjoos/Documents/AI Masters/Period 1/Cognitive Psychology/Research project/results/subject-2.csv","real","Melodramatic Milgram","4.0.5","photo","right","right","NA","space","left","NA","right","2670.5619170097634","800.5359169910662","NA","1105.2499579964206","14556.750709016342","NA","2670.5619170097634","NA","NA","2","real_20","1024","2","48000","-16","experiment","2","even","25763.228875002824","NA","21641.813958005514","31112.503791984636","NA","24832.08820800064","6672.130750026554","176712.20362500753","NA","NA","177219.10058299545","32886.6483750171","6730.252832989208","NA","NA","NA","NA","NA","NA","NA","NA","NA","27892.967041989323","NA","177219.30270799203","33993.929749995004","176706.56508300453","NA","32877.32541700825","NA","27892.178417008836","179892.9019169882","NA","25762.44175003376","NA","NA","New experiment","36","111810.62258093152","53","1024"
"68","NA","68","2089","2089","#3d3846","psycho","NA","1","undefined","undefined","1","left","0","0","0","0","0","0","0","53","NA","0","53","0","0","NA","NA","NA","0","NA","NA","NA","NA","NA","0","NA","53","0","53","0","0","0","0","53","0","0","0","NA","Sun Oct 15 15:48:50 2023","50","The main experiment item","yes","CogPsy_Assignment_With_Instruction.osexp","/Users/andrasjoos/Documents/AI Masters/Period 1/Cognitive Psychology/Research project","no","mono","no","18","no","white","no","Student","yes","768","/Users/andrasjoos/Documents/AI Masters/Period 1/Cognitive Psychology/Research project/results/subject-2.csv","fake","Melodramatic Milgram","4.0.5","silver_strip","left","right","NA","space","left","NA","left","1041.5219999849796","800.5359169910662","NA","1105.2499579964206","14556.750709016342","NA","1041.5219999849796","NA","NA","2","fake_2_50","1024","2","48000","-16","experiment","2","even","25763.228875002824","NA","21641.813958005514","31112.503791984636","NA","24832.08820800064","6672.130750026554","179992.8675830015","NA","NA","180499.69008303015","32886.6483750171","6730.252832989208","NA","NA","NA","NA","NA","NA","NA","NA","NA","27892.967041989323","NA","180499.93500002893","33993.929749995004","179982.814625022","NA","32877.32541700825","NA","27892.178417008836","181543.08475001017","NA","25762.44175003376","NA","NA","New experiment","37","112852.1445809165","54","1024"
"68","NA","68","2089","2089","#3d3846","psycho","NA","1","undefined","undefined","1","left","0","0","0","0","0","0","0","53","NA","0","53","0","0","NA","NA","NA","0","NA","NA","NA","NA","NA","0","NA","53","0","53","0","0","0","0","53","0","0","0","NA","Sun Oct 15 15:48:50 2023","50","The main experiment item","yes","CogPsy_Assignment_With_Instruction.osexp","/Users/andrasjoos/Documents/AI Masters/Period 1/Cognitive Psychology/Research project","no","mono","no","18","no","white","no","head on the left, euro sigen in the down right corner, ink crispiness","yes","768","/Users/andrasjoos/Documents/AI Masters/Period 1/Cognitive Psychology/Research project/results/subject-2.csv","fake","Melodramatic Milgram","4.0.5","silver_strip","head on the left, euro sigen in the down right corner, ink crispiness","right","NA","space","left","NA","left","1041.5219999849796","800.5359169910662","NA","1105.2499579964206","14556.750709016342","NA","1041.5219999849796","NA","NA","2","fake_2_50","1024","2","48000","-16","experiment","2","even","25763.228875002824","NA","21641.813958005514","31112.503791984636","NA","24832.08820800064","6672.130750026554","179992.8675830015","NA","NA","180499.69008303015","32886.6483750171","6730.252832989208","NA","NA","NA","379363.048625004","NA","NA","NA","NA","NA","27892.967041989323","NA","180499.93500002893","33993.929749995004","179982.814625022","NA","32877.32541700825","181602.53166698385","27892.178417008836","181543.08475001017","NA","25762.44175003376","NA","NA","New experiment","37","112852.1445809165","54","1024"
"68","NA","68","2089","2089","#3d3846","psycho","NA","1","undefined","undefined","1","left","0","0","0","0","0","0","0","53","NA","0","53","0","0","NA","NA","NA","0","NA","NA","NA","NA","NA","0","NA","53","0","53","0","0","0","0","53","0","0","0","NA","Sun Oct 15 15:48:50 2023","50","The main experiment item","yes","CogPsy_Assignment_With_Instruction.osexp","/Users/andrasjoos/Documents/AI Masters/Period 1/Cognitive Psychology/Research project","no","mono","no","18","no","white","no","Ok","yes","768","/Users/andrasjoos/Documents/AI Masters/Period 1/Cognitive Psychology/Research project/results/subject-2.csv","fake","Melodramatic Milgram","4.0.5","silver_strip","Silver strip (security thread);Watermark;Ink quality","right","NA","space","left","NA","left","1041.5219999849796","800.5359169910662","NA","1105.2499579964206","14556.750709016342","NA","1041.5219999849796","NA","NA","2","fake_2_50","1024","2","48000","-16","experiment","2","even","25763.228875002824","NA","21641.813958005514","31112.503791984636","NA","24832.08820800064","6672.130750026554","179992.8675830015","NA","NA","180499.69008303015","32886.6483750171","6730.252832989208","NA","NA","NA","379363.048625004","NA","NA","NA","NA","NA","27892.967041989323","NA","180499.93500002893","33993.929749995004","179982.814625022","NA","32877.32541700825","181602.53166698385","27892.178417008836","181543.08475001017","NA","25762.44175003376","391125.0324579887","NA","New experiment","37","112852.1445809165","54","1024"
