"acc","accept_status","accuracy","average_response_time","avg_rt","background","canvas_backend","checkbox_status","correct","correct_consent_sketchpad","correct_instruction_sketchpad","correct_new_keyboard_response","correct_response","count_age_form","count_checkbox_security_form","count_consent_sketchpad","count_country_logger","count_eurozone_form","count_eurozone_logger","count_experiment","count_fixation_dots","count_getting_started","count_goodbye_sketchpad","count_images_sketchpad","count_information_display_sketchpad","count_instruction_sketchpad","count_new_1_form_base","count_new_1_form_text_input","count_new_1_sketchpad","count_new_2_logger","count_new_4_form_multiple_choice","count_new_form_base","count_new_form_consent","count_new_form_multiple_choice","count_new_form_text_display","count_new_form_text_input","count_new_inline_script","count_new_keyboard_response","count_new_loop","count_new_sequence","count_occupation_form","count_occupation_logger","count_open_security_input_form","count_personal_data_logger","count_response_logger","count_schooling_level_form","count_schooling_logger","count_security_feature_logger","count_welcome","datetime","denomination","description","disable_garbage_collection","experiment_file","experiment_path","font_bold","font_family","font_italic","font_size","font_underline","foreground","form_clicks","form_response","fullscreen","height","logfile","note_type","opensesame_codename","opensesame_version","reason","response","response_consent_sketchpad","response_goodbye_sketchpad","response_information_display_sketchpad","response_instruction_sketchpad","response_new_1_sketchpad","response_new_keyboard_response","response_time","response_time_consent_sketchpad","response_time_goodbye_sketchpad","response_time_information_display_sketchpad","response_time_instruction_sketchpad","response_time_new_1_sketchpad","response_time_new_keyboard_response","response_time_welcome","response_welcome","round_decimals","show","sound_buf_size","sound_channels","sound_freq","sound_sample_size","start","subject_nr","subject_parity","time_age_form","time_checkbox_security_form","time_consent_sketchpad","time_country_logger","time_eurozone_form","time_eurozone_logger","time_experiment","time_fixation_dots","time_getting_started","time_goodbye_sketchpad","time_images_sketchpad","time_information_display_sketchpad","time_instruction_sketchpad","time_new_1_form_base","time_new_1_form_text_input","time_new_1_sketchpad","time_new_2_logger","time_new_4_form_multiple_choice","time_new_form_base","time_new_form_consent","time_new_form_multiple_choice","time_new_form_text_display","time_new_form_text_input","time_new_inline_script","time_new_keyboard_response","time_new_loop","time_new_sequence","time_occupation_form","time_occupation_logger","time_open_security_input_form","time_personal_data_logger","time_response_logger","time_schooling_level_form","time_schooling_logger","time_security_feature_logger","time_welcome","title","total_correct","total_response_time","total_responses","width"
"undefined","NA","undefined","undefined","undefined","#3d3846","psycho","NA","undefined","undefined","undefined","NA","NA","0","0","0","0","0","0","0","NA","NA","0","NA","0","0","NA","NA","NA","0","NA","NA","NA","NA","NA","0","NA","NA","0","NA","0","0","0","0","NA","0","0","0","NA","Fri Oct 27 22:47:46 2023","NA","The main experiment item","yes","CogPsy_Assignment_With_Instruction.osexp","/Users/andrasjoos/Documents/AI Masters/Period 1/Cognitive Psychology/Research project","no","mono","no","18","no","white","no","No","yes","768","/Users/andrasjoos/Documents/AI Masters/Period 1/Cognitive Psychology/Research project/results/subject-9.csv","NA","Melodramatic Milgram","4.0.5","NA","No","right","NA","NA","right","NA","NA","2665.9713750123046","2665.9713750123046","NA","NA","1687.9761249874718","NA","NA","NA","NA","2","NA","1024","2","48000","-16","experiment","9","odd","NA","NA","8750.971499976004","NA","NA","16557.85729197669","6871.244666981511","NA","NA","NA","NA","NA","6904.0517499961425","NA","NA","NA","NA","NA","NA","NA","NA","NA","NA","NA","NA","NA","NA","NA","NA","NA","NA","NA","NA","NA","NA","NA","New experiment","0","0","0","1024"
"undefined","NA","undefined","undefined","undefined","#3d3846","psycho","NA","undefined","undefined","undefined","NA","NA","0","0","0","0","0","0","0","NA","NA","0","NA","0","0","NA","NA","NA","0","NA","NA","NA","NA","NA","0","NA","NA","0","NA","0","0","0","0","NA","0","0","0","NA","Fri Oct 27 22:47:46 2023","NA","The main experiment item","yes","CogPsy_Assignment_With_Instruction.osexp","/Users/andrasjoos/Documents/AI Masters/Period 1/Cognitive Psychology/Research project","no","mono","no","18","no","white","no","Bachelors","yes","768","/Users/andrasjoos/Documents/AI Masters/Period 1/Cognitive Psychology/Research project/results/subject-9.csv","NA","Melodramatic Milgram","4.0.5","NA","Bachelors","right","NA","NA","right","NA","NA","2665.9713750123046","2665.9713750123046","NA","NA","1687.9761249874718","NA","NA","NA","NA","2","NA","1024","2","48000","-16","experiment","9","odd","NA","NA","8750.971499976004","NA","NA","16557.85729197669","6871.244666981511","NA","NA","NA","NA","NA","6904.0517499961425","NA","NA","NA","NA","NA","NA","NA","NA","NA","NA","NA","NA","NA","NA","NA","NA","NA","NA","NA","NA","32546.39924998628","NA","NA","New experiment","0","0","0","1024"
"undefined","NA","undefined","undefined","undefined","#3d3846","psycho","NA","undefined","undefined","undefined","NA","NA","0","0","0","0","0","0","0","NA","NA","0","NA","0","0","NA","NA","NA","0","NA","NA","NA","NA","NA","0","NA","NA","0","NA","0","0","0","0","NA","0","0","0","NA","Fri Oct 27 22:47:46 2023","NA","The main experiment item","yes","CogPsy_Assignment_With_Instruction.osexp","/Users/andrasjoos/Documents/AI Masters/Period 1/Cognitive Psychology/Research project","no","mono","no","18","no","white","no","22","yes","768","/Users/andrasjoos/Documents/AI Masters/Period 1/Cognitive Psychology/Research project/results/subject-9.csv","NA","Melodramatic Milgram","4.0.5","NA","22","right","NA","NA","right","NA","NA","2665.9713750123046","2665.9713750123046","NA","NA","1687.9761249874718","NA","NA","NA","NA","2","NA","1024","2","48000","-16","experiment","9","odd","32547.54133298411","NA","8750.971499976004","NA","NA","16557.85729197669","6871.244666981511","NA","NA","NA","NA","NA","6904.0517499961425","NA","NA","NA","NA","NA","NA","NA","NA","NA","NA","NA","NA","NA","NA","NA","NA","NA","36867.807291971985","NA","NA","32546.39924998628","NA","NA","New experiment","0","0","0","1024"
"undefined","NA","undefined","undefined","undefined","#3d3846","psycho","NA","undefined","undefined","undefined","NA","NA","0","0","0","0","0","0","0","NA","NA","0","NA","0","0","NA","NA","NA","0","NA","NA","NA","NA","NA","0","NA","NA","0","NA","0","0","0","0","NA","0","0","0","NA","Fri Oct 27 22:47:46 2023","NA","The main experiment item","yes","CogPsy_Assignment_With_Instruction.osexp","/Users/andrasjoos/Documents/AI Masters/Period 1/Cognitive Psychology/Research project","no","mono","no","18","no","white","no","hungarian","yes","768","/Users/andrasjoos/Documents/AI Masters/Period 1/Cognitive Psychology/Research project/results/subject-9.csv","NA","Melodramatic Milgram","4.0.5","NA","hungarian","right","NA","NA","right","NA","NA","2665.9713750123046","2665.9713750123046","NA","NA","1687.9761249874718","NA","NA","NA","NA","2","NA","1024","2","48000","-16","experiment","9","odd","32547.54133298411","NA","8750.971499976004","48240.99491699599","NA","16557.85729197669","6871.244666981511","NA","NA","NA","NA","NA","6904.0517499961425","NA","NA","NA","NA","NA","NA","NA","NA","NA","36868.619249988114","NA","NA","NA","NA","NA","NA","NA","36867.807291971985","NA","NA","32546.39924998628","NA","NA","New experiment","0","0","0","1024"
"undefined","NA","undefined","undefined","undefined","#3d3846","psycho","NA","undefined","undefined","undefined","NA","NA","0","0","0","0","0","0","0","NA","NA","0","NA","0","0","NA","NA","NA","0","NA","NA","NA","NA","NA","0","NA","NA","0","NA","0","0","0","0","NA","0","0","0","NA","Fri Oct 27 22:47:46 2023","NA","The main experiment item","yes","CogPsy_Assignment_With_Instruction.osexp","/Users/andrasjoos/Documents/AI Masters/Period 1/Cognitive Psychology/Research project","no","mono","no","18","no","white","no","Arts and Creative Professions","yes","768","/Users/andrasjoos/Documents/AI Masters/Period 1/Cognitive Psychology/Research project/results/subject-9.csv","NA","Melodramatic Milgram","4.0.5","NA","Arts and Creative Professions","right","NA","NA","right","NA","NA","2665.9713750123046","2665.9713750123046","NA","NA","1687.9761249874718","NA","NA","NA","NA","2","NA","1024","2","48000","-16","experiment","9","odd","32547.54133298411","NA","8750.971499976004","48240.99491699599","NA","16557.85729197669","6871.244666981511","NA","NA","NA","NA","NA","6904.0517499961425","NA","NA","NA","NA","NA","NA","NA","NA","NA","36868.619249988114","NA","NA","NA","NA","NA","54619.55466697691","NA","36867.807291971985","NA","NA","32546.39924998628","NA","NA","New experiment","0","0","0","1024"
"100","NA","100","4231","4231","#3d3846","psycho","NA","1","undefined","undefined","1","left","0","0","0","0","0","0","0","0","NA","0","0","0","0","NA","NA","NA","0","NA","NA","NA","NA","NA","0","NA","0","0","0","0","0","0","0","0","0","0","0","NA","Fri Oct 27 22:47:46 2023","50","The main experiment item","yes","CogPsy_Assignment_With_Instruction.osexp","/Users/andrasjoos/Documents/AI Masters/Period 1/Cognitive Psychology/Research project","no","mono","no","18","no","white","no","Arts and Creative Professions","yes","768","/Users/andrasjoos/Documents/AI Masters/Period 1/Cognitive Psychology/Research project/results/subject-9.csv","fake","Melodramatic Milgram","4.0.5","PurpleDenomination2","left","right","NA","right","right","NA","left","4231.493625004077","2665.9713750123046","NA","3430.277917010244","1687.9761249874718","NA","4231.493625004077","NA","NA","2","fake_2_50","1024","2","48000","-16","experiment","9","odd","32547.54133298411","NA","8750.971499976004","48240.99491699599","NA","16557.85729197669","6871.244666981511","58124.81620797189","NA","NA","58629.01870798669","54630.18245797139","6904.0517499961425","NA","NA","NA","NA","NA","NA","NA","NA","NA","36868.619249988114","NA","58629.141624987824","58061.6015829728","58115.708541998174","NA","54619.55466697691","NA","36867.807291971985","62863.367291982286","NA","32546.39924998628","NA","NA","New experiment","1","4231.493625004077","1","1024"
"100","NA","100","2458","2458","#3d3846","psycho","NA","1","undefined","undefined","1","right","0","0","0","0","0","0","0","1","NA","0","1","0","0","NA","NA","NA","0","NA","NA","NA","NA","NA","0","NA","1","0","1","0","0","0","0","1","0","0","0","NA","Fri Oct 27 22:47:46 2023","20","The main experiment item","yes","CogPsy_Assignment_With_Instruction.osexp","/Users/andrasjoos/Documents/AI Masters/Period 1/Cognitive Psychology/Research project","no","mono","no","18","no","white","no","Arts and Creative Professions","yes","768","/Users/andrasjoos/Documents/AI Masters/Period 1/Cognitive Psychology/Research project/results/subject-9.csv","real","Melodramatic Milgram","4.0.5","photo","right","right","NA","right","right","NA","right","685.9874999790918","2665.9713750123046","NA","3430.277917010244","1687.9761249874718","NA","685.9874999790918","NA","NA","2","real_20","1024","2","48000","-16","experiment","9","odd","32547.54133298411","NA","8750.971499976004","48240.99491699599","NA","16557.85729197669","6871.244666981511","63033.50524997222","NA","NA","63537.62937497231","54630.18245797139","6904.0517499961425","NA","NA","NA","NA","NA","NA","NA","NA","NA","36868.619249988114","NA","63537.7543749928","58061.6015829728","63026.57783299219","NA","54619.55466697691","NA","36867.807291971985","64224.86041698721","NA","32546.39924998628","NA","NA","New experiment","2","4917.481124983169","2","1024"
"100","NA","100","1908","1908","#3d3846","psycho","NA","1","undefined","undefined","1","left","0","0","0","0","0","0","0","2","NA","0","2","0","0","NA","NA","NA","0","NA","NA","NA","NA","NA","0","NA","2","0","2","0","0","0","0","2","0","0","0","NA","Fri Oct 27 22:47:46 2023","20","The main experiment item","yes","CogPsy_Assignment_With_Instruction.osexp","/Users/andrasjoos/Documents/AI Masters/Period 1/Cognitive Psychology/Research project","no","mono","no","18","no","white","no","Arts and Creative Professions","yes","768","/Users/andrasjoos/Documents/AI Masters/Period 1/Cognitive Psychology/Research project/results/subject-9.csv","fake","Melodramatic Milgram","4.0.5","DullHologram2","left","right","NA","right","right","NA","left","808.7279159808531","2665.9713750123046","NA","3430.277917010244","1687.9761249874718","NA","808.7279159808531","NA","NA","2","fake_20","1024","2","48000","-16","experiment","9","odd","32547.54133298411","NA","8750.971499976004","48240.99491699599","NA","16557.85729197669","6871.244666981511","64316.254291974474","NA","NA","64819.893207983114","54630.18245797139","6904.0517499961425","NA","NA","NA","NA","NA","NA","NA","NA","NA","36868.619249988114","NA","64820.00616699224","58061.6015829728","64311.633207980776","NA","54619.55466697691","NA","36867.807291971985","65629.83374999021","NA","32546.39924998628","NA","NA","New experiment","3","5726.209040964022","3","1024"
"100","NA","100","2021","2021","#3d3846","psycho","NA","1","undefined","undefined","1","left","0","0","0","0","0","0","0","3","NA","0","3","0","0","NA","NA","NA","0","NA","NA","NA","NA","NA","0","NA","3","0","3","0","0","0","0","3","0","0","0","NA","Fri Oct 27 22:47:46 2023","20","The main experiment item","yes","CogPsy_Assignment_With_Instruction.osexp","/Users/andrasjoos/Documents/AI Masters/Period 1/Cognitive Psychology/Research project","no","mono","no","18","no","white","no","Arts and Creative Professions","yes","768","/Users/andrasjoos/Documents/AI Masters/Period 1/Cognitive Psychology/Research project/results/subject-9.csv","fake","Melodramatic Milgram","4.0.5","BrownDenomination","left","right","NA","right","right","NA","left","2358.881874999497","2665.9713750123046","NA","3430.277917010244","1687.9761249874718","NA","2358.881874999497","NA","NA","2","fake_20","1024","2","48000","-16","experiment","9","odd","32547.54133298411","NA","8750.971499976004","48240.99491699599","NA","16557.85729197669","6871.244666981511","65720.8082919824","NA","NA","66224.85562498332","54630.18245797139","6904.0517499961425","NA","NA","NA","NA","NA","NA","NA","NA","NA","36868.619249988114","NA","66224.96858297382","58061.6015829728","65716.14020798006","NA","54619.55466697691","NA","36867.807291971985","68584.97158298269","NA","32546.39924998628","NA","NA","New experiment","4","8085.090915963519","4","1024"
"80","NA","80","1941","1941","#3d3846","psycho","NA","0","undefined","undefined","0","right","0","0","0","0","0","0","0","4","NA","0","4","0","0","NA","NA","NA","0","NA","NA","NA","NA","NA","0","NA","4","0","4","0","0","0","0","4","0","0","0","NA","Fri Oct 27 22:47:46 2023","20","The main experiment item","yes","CogPsy_Assignment_With_Instruction.osexp","/Users/andrasjoos/Documents/AI Masters/Period 1/Cognitive Psychology/Research project","no","mono","no","18","no","white","no","Arts and Creative Professions","yes","768","/Users/andrasjoos/Documents/AI Masters/Period 1/Cognitive Psychology/Research project/results/subject-9.csv","real","Melodramatic Milgram","4.0.5","genuine","left","right","NA","right","right","NA","left","1623.880166996969","2665.9713750123046","NA","3430.277917010244","1687.9761249874718","NA","1623.880166996969","NA","NA","2","real_20","1024","2","48000","-16","experiment","9","odd","32547.54133298411","NA","8750.971499976004","48240.99491699599","NA","16557.85729197669","6871.244666981511","68656.88445797423","NA","NA","69160.84158298327","54630.18245797139","6904.0517499961425","NA","NA","NA","NA","NA","NA","NA","NA","NA","36868.619249988114","NA","69160.96099998686","58061.6015829728","68650.4871249781","NA","54619.55466697691","NA","36867.807291971985","70785.80983297434","NA","32546.39924998628","NA","NA","New experiment","4","9708.971082960488","5","1024"
"83","NA","83","2222","2222","#3d3846","psycho","NA","1","undefined","undefined","1","left","0","0","0","0","0","0","0","5","NA","0","5","0","0","NA","NA","NA","0","NA","NA","NA","NA","NA","0","NA","5","0","5","0","0","0","0","5","0","0","0","NA","Fri Oct 27 22:47:46 2023","50","The main experiment item","yes","CogPsy_Assignment_With_Instruction.osexp","/Users/andrasjoos/Documents/AI Masters/Period 1/Cognitive Psychology/Research project","no","mono","no","18","no","white","no","Arts and Creative Professions","yes","768","/Users/andrasjoos/Documents/AI Masters/Period 1/Cognitive Psychology/Research project/results/subject-9.csv","fake","Melodramatic Milgram","4.0.5","GreyDenomination","left","right","NA","right","right","NA","left","3626.491833012551","2665.9713750123046","NA","3430.277917010244","1687.9761249874718","NA","3626.491833012551","NA","NA","2","fake_2_50","1024","2","48000","-16","experiment","9","odd","32547.54133298411","NA","8750.971499976004","48240.99491699599","NA","16557.85729197669","6871.244666981511","70878.8269579818","NA","NA","71382.71999999415","54630.18245797139","6904.0517499961425","NA","NA","NA","NA","NA","NA","NA","NA","NA","36868.619249988114","NA","71382.82787497155","58061.6015829728","70872.77158297366","NA","54619.55466697691","NA","36867.807291971985","75010.50866697915","NA","32546.39924998628","NA","NA","New experiment","5","13335.46291597304","6","1024"
"71","NA","71","2394","2394","#3d3846","psycho","NA","0","undefined","undefined","0","right","0","0","0","0","0","0","0","6","NA","0","6","0","0","NA","NA","NA","0","NA","NA","NA","NA","NA","0","NA","6","0","6","0","0","0","0","6","0","0","0","NA","Fri Oct 27 22:47:46 2023","50","The main experiment item","yes","CogPsy_Assignment_With_Instruction.osexp","/Users/andrasjoos/Documents/AI Masters/Period 1/Cognitive Psychology/Research project","no","mono","no","18","no","white","no","Arts and Creative Professions","yes","768","/Users/andrasjoos/Documents/AI Masters/Period 1/Cognitive Psychology/Research project/results/subject-9.csv","real","Melodramatic Milgram","4.0.5","photo","left","right","NA","right","right","NA","left","3426.749958016444","2665.9713750123046","NA","3430.277917010244","1687.9761249874718","NA","3426.749958016444","NA","NA","2","real_50","1024","2","48000","-16","experiment","9","odd","32547.54133298411","NA","8750.971499976004","48240.99491699599","NA","16557.85729197669","6871.244666981511","75103.92962498008","NA","NA","75607.85995799233","54630.18245797139","6904.0517499961425","NA","NA","NA","NA","NA","NA","NA","NA","NA","36868.619249988114","NA","75607.97299997648","58061.6015829728","75097.58933298872","NA","54619.55466697691","NA","36867.807291971985","79035.8288329735","NA","32546.39924998628","NA","NA","New experiment","5","16762.212873989483","7","1024"
"62","NA","62","2207","2207","#3d3846","psycho","NA","0","undefined","undefined","0","left","0","0","0","0","0","0","0","7","NA","0","7","0","0","NA","NA","NA","0","NA","NA","NA","NA","NA","0","NA","7","0","7","0","0","0","0","7","0","0","0","NA","Fri Oct 27 22:47:46 2023","50","The main experiment item","yes","CogPsy_Assignment_With_Instruction.osexp","/Users/andrasjoos/Documents/AI Masters/Period 1/Cognitive Psychology/Research project","no","mono","no","18","no","white","no","Arts and Creative Professions","yes","768","/Users/andrasjoos/Documents/AI Masters/Period 1/Cognitive Psychology/Research project/results/subject-9.csv","fake","Melodramatic Milgram","4.0.5","PurpleDenomination","right","right","NA","right","right","NA","right","894.1091670130845","2665.9713750123046","NA","3430.277917010244","1687.9761249874718","NA","894.1091670130845","NA","NA","2","fake_2_50","1024","2","48000","-16","experiment","9","odd","32547.54133298411","NA","8750.971499976004","48240.99491699599","NA","16557.85729197669","6871.244666981511","79120.7421250001","NA","NA","79624.3704999797","54630.18245797139","6904.0517499961425","NA","NA","NA","NA","NA","NA","NA","NA","NA","36868.619249988114","NA","79624.48612498702","58061.6015829728","79114.52316699433","NA","54619.55466697691","NA","36867.807291971985","80519.63012499618","NA","32546.39924998628","NA","NA","New experiment","5","17656.322041002568","8","1024"
"66","NA","66","2037","2037","#3d3846","psycho","NA","1","undefined","undefined","1","right","0","0","0","0","0","0","0","8","NA","0","8","0","0","NA","NA","NA","0","NA","NA","NA","NA","NA","0","NA","8","0","8","0","0","0","0","8","0","0","0","NA","Fri Oct 27 22:47:46 2023","50","The main experiment item","yes","CogPsy_Assignment_With_Instruction.osexp","/Users/andrasjoos/Documents/AI Masters/Period 1/Cognitive Psychology/Research project","no","mono","no","18","no","white","no","Arts and Creative Professions","yes","768","/Users/andrasjoos/Documents/AI Masters/Period 1/Cognitive Psychology/Research project/results/subject-9.csv","real","Melodramatic Milgram","4.0.5","photo_2","right","right","NA","right","right","NA","right","683.4308329853229","2665.9713750123046","NA","3430.277917010244","1687.9761249874718","NA","683.4308329853229","NA","NA","2","real_50","1024","2","48000","-16","experiment","9","odd","32547.54133298411","NA","8750.971499976004","48240.99491699599","NA","16557.85729197669","6871.244666981511","80603.14741698676","NA","NA","81106.94716699072","54630.18245797139","6904.0517499961425","NA","NA","NA","NA","NA","NA","NA","NA","NA","36868.619249988114","NA","81107.04729199642","58061.6015829728","80598.53016698617","NA","54619.55466697691","NA","36867.807291971985","81791.55216697836","NA","32546.39924998628","NA","NA","New experiment","6","18339.75287398789","9","1024"
"70","NA","70","1902","1902","#3d3846","psycho","NA","1","undefined","undefined","1","left","0","0","0","0","0","0","0","9","NA","0","9","0","0","NA","NA","NA","0","NA","NA","NA","NA","NA","0","NA","9","0","9","0","0","0","0","9","0","0","0","NA","Fri Oct 27 22:47:46 2023","20","The main experiment item","yes","CogPsy_Assignment_With_Instruction.osexp","/Users/andrasjoos/Documents/AI Masters/Period 1/Cognitive Psychology/Research project","no","mono","no","18","no","white","no","Arts and Creative Professions","yes","768","/Users/andrasjoos/Documents/AI Masters/Period 1/Cognitive Psychology/Research project/results/subject-9.csv","fake","Melodramatic Milgram","4.0.5","PurpleDenomination","left","right","NA","right","right","NA","left","680.7727920240723","2665.9713750123046","NA","3430.277917010244","1687.9761249874718","NA","680.7727920240723","NA","NA","2","fake_20","1024","2","48000","-16","experiment","9","odd","32547.54133298411","NA","8750.971499976004","48240.99491699599","NA","16557.85729197669","6871.244666981511","81882.75962497573","NA","NA","82386.52083298075","54630.18245797139","6904.0517499961425","NA","NA","NA","NA","NA","NA","NA","NA","NA","36868.619249988114","NA","82386.63445797283","58061.6015829728","81878.0172499828","NA","54619.55466697691","NA","36867.807291971985","83068.46074998612","NA","32546.39924998628","NA","NA","New experiment","7","19020.525666011963","10","1024"
"63","NA","63","1790","1790","#3d3846","psycho","NA","0","undefined","undefined","0","right","0","0","0","0","0","0","0","10","NA","0","10","0","0","NA","NA","NA","0","NA","NA","NA","NA","NA","0","NA","10","0","10","0","0","0","0","10","0","0","0","NA","Fri Oct 27 22:47:46 2023","20","The main experiment item","yes","CogPsy_Assignment_With_Instruction.osexp","/Users/andrasjoos/Documents/AI Masters/Period 1/Cognitive Psychology/Research project","no","mono","no","18","no","white","no","Arts and Creative Professions","yes","768","/Users/andrasjoos/Documents/AI Masters/Period 1/Cognitive Psychology/Research project/results/subject-9.csv","real","Melodramatic Milgram","4.0.5","genuine","left","right","NA","right","right","NA","left","673.7768330203835","2665.9713750123046","NA","3430.277917010244","1687.9761249874718","NA","673.7768330203835","NA","NA","2","real_20","1024","2","48000","-16","experiment","9","odd","32547.54133298411","NA","8750.971499976004","48240.99491699599","NA","16557.85729197669","6871.244666981511","83137.82245799666","NA","NA","83641.56754198484","54630.18245797139","6904.0517499961425","NA","NA","NA","NA","NA","NA","NA","NA","NA","36868.619249988114","NA","83641.68437497574","58061.6015829728","83133.11729198904","NA","54619.55466697691","NA","36867.807291971985","84316.5844999894","NA","32546.39924998628","NA","NA","New experiment","7","19694.302499032347","11","1024"
"58","NA","58","1697","1697","#3d3846","psycho","NA","0","undefined","undefined","0","left","0","0","0","0","0","0","0","11","NA","0","11","0","0","NA","NA","NA","0","NA","NA","NA","NA","NA","0","NA","11","0","11","0","0","0","0","11","0","0","0","NA","Fri Oct 27 22:47:46 2023","50","The main experiment item","yes","CogPsy_Assignment_With_Instruction.osexp","/Users/andrasjoos/Documents/AI Masters/Period 1/Cognitive Psychology/Research project","no","mono","no","18","no","white","no","Arts and Creative Professions","yes","768","/Users/andrasjoos/Documents/AI Masters/Period 1/Cognitive Psychology/Research project/results/subject-9.csv","fake","Melodramatic Milgram","4.0.5","NoNumOnThread_BlurryWatermark","right","right","NA","right","right","NA","right","676.1122500174679","2665.9713750123046","NA","3430.277917010244","1687.9761249874718","NA","676.1122500174679","NA","NA","2","fake_2_50","1024","2","48000","-16","experiment","9","odd","32547.54133298411","NA","8750.971499976004","48240.99491699599","NA","16557.85729197669","6871.244666981511","84408.55999998166","NA","NA","84912.22795797512","54630.18245797139","6904.0517499961425","NA","NA","NA","NA","NA","NA","NA","NA","NA","36868.619249988114","NA","84912.3405419814","58061.6015829728","84403.93512498122","NA","54619.55466697691","NA","36867.807291971985","85589.55520798918","NA","32546.39924998628","NA","NA","New experiment","7","20370.414749049814","12","1024"
"53","NA","53","1667","1667","#3d3846","psycho","NA","0","undefined","undefined","0","left","0","0","0","0","0","0","0","12","NA","0","12","0","0","NA","NA","NA","0","NA","NA","NA","NA","NA","0","NA","12","0","12","0","0","0","0","12","0","0","0","NA","Fri Oct 27 22:47:46 2023","20","The main experiment item","yes","CogPsy_Assignment_With_Instruction.osexp","/Users/andrasjoos/Documents/AI Masters/Period 1/Cognitive Psychology/Research project","no","mono","no","18","no","white","no","Arts and Creative Professions","yes","768","/Users/andrasjoos/Documents/AI Masters/Period 1/Cognitive Psychology/Research project/results/subject-9.csv","fake","Melodramatic Milgram","4.0.5","bottom_left","right","right","NA","right","right","NA","right","1306.1722090060357","2665.9713750123046","NA","3430.277917010244","1687.9761249874718","NA","1306.1722090060357","NA","NA","2","fake_1_20","1024","2","48000","-16","experiment","9","odd","32547.54133298411","NA","8750.971499976004","48240.99491699599","NA","16557.85729197669","6871.244666981511","85660.024916986","NA","NA","86164.20649999054","54630.18245797139","6904.0517499961425","NA","NA","NA","NA","NA","NA","NA","NA","NA","36868.619249988114","NA","86164.3208329915","58061.6015829728","85655.40833299747","NA","54619.55466697691","NA","36867.807291971985","87471.73129199655","NA","32546.39924998628","NA","NA","New experiment","7","21676.58695805585","13","1024"
"57","NA","57","1641","1641","#3d3846","psycho","NA","1","undefined","undefined","1","left","0","0","0","0","0","0","0","13","NA","0","13","0","0","NA","NA","NA","0","NA","NA","NA","NA","NA","0","NA","13","0","13","0","0","0","0","13","0","0","0","NA","Fri Oct 27 22:47:46 2023","50","The main experiment item","yes","CogPsy_Assignment_With_Instruction.osexp","/Users/andrasjoos/Documents/AI Masters/Period 1/Cognitive Psychology/Research project","no","mono","no","18","no","white","no","Arts and Creative Professions","yes","768","/Users/andrasjoos/Documents/AI Masters/Period 1/Cognitive Psychology/Research project/results/subject-9.csv","fake","Melodramatic Milgram","4.0.5","PurpleDenomination2","left","right","NA","right","right","NA","left","1299.989999999525","2665.9713750123046","NA","3430.277917010244","1687.9761249874718","NA","1299.989999999525","NA","NA","2","fake_2_50","1024","2","48000","-16","experiment","9","odd","32547.54133298411","NA","8750.971499976004","48240.99491699599","NA","16557.85729197669","6871.244666981511","87564.02804199024","NA","NA","88068.09387498652","54630.18245797139","6904.0517499961425","NA","NA","NA","NA","NA","NA","NA","NA","NA","36868.619249988114","NA","88068.20808298653","58061.6015829728","87557.94058297761","NA","54619.55466697691","NA","36867.807291971985","89369.23529198975","NA","32546.39924998628","NA","NA","New experiment","8","22976.576958055375","14","1024"
"53","NA","53","1624","1624","#3d3846","psycho","NA","0","undefined","undefined","0","right","0","0","0","0","0","0","0","14","NA","0","14","0","0","NA","NA","NA","0","NA","NA","NA","NA","NA","0","NA","14","0","14","0","0","0","0","14","0","0","0","NA","Fri Oct 27 22:47:46 2023","20","The main experiment item","yes","CogPsy_Assignment_With_Instruction.osexp","/Users/andrasjoos/Documents/AI Masters/Period 1/Cognitive Psychology/Research project","no","mono","no","18","no","white","no","Arts and Creative Professions","yes","768","/Users/andrasjoos/Documents/AI Masters/Period 1/Cognitive Psychology/Research project/results/subject-9.csv","real","Melodramatic Milgram","4.0.5","genuine","left","right","NA","right","right","NA","left","1390.2042499976233","2665.9713750123046","NA","3430.277917010244","1687.9761249874718","NA","1390.2042499976233","NA","NA","2","real_20","1024","2","48000","-16","experiment","9","odd","32547.54133298411","NA","8750.971499976004","48240.99491699599","NA","16557.85729197669","6871.244666981511","89440.5687499966","NA","NA","89944.3589579896","54630.18245797139","6904.0517499961425","NA","NA","NA","NA","NA","NA","NA","NA","NA","36868.619249988114","NA","89944.47462499375","58061.6015829728","89433.74929198762","NA","54619.55466697691","NA","36867.807291971985","91335.79904198996","NA","32546.39924998628","NA","NA","New experiment","8","24366.781208053","15","1024"
"56","NA","56","1750","1750","#3d3846","psycho","NA","1","undefined","undefined","1","left","0","0","0","0","0","0","0","15","NA","0","15","0","0","NA","NA","NA","0","NA","NA","NA","NA","NA","0","NA","15","0","15","0","0","0","0","15","0","0","0","NA","Fri Oct 27 22:47:46 2023","20","The main experiment item","yes","CogPsy_Assignment_With_Instruction.osexp","/Users/andrasjoos/Documents/AI Masters/Period 1/Cognitive Psychology/Research project","no","mono","no","18","no","white","no","Arts and Creative Professions","yes","768","/Users/andrasjoos/Documents/AI Masters/Period 1/Cognitive Psychology/Research project/results/subject-9.csv","fake","Melodramatic Milgram","4.0.5","BadInk","left","right","NA","right","right","NA","left","3638.5832079977263","2665.9713750123046","NA","3430.277917010244","1687.9761249874718","NA","3638.5832079977263","NA","NA","2","fake_20","1024","2","48000","-16","experiment","9","odd","32547.54133298411","NA","8750.971499976004","48240.99491699599","NA","16557.85729197669","6871.244666981511","91432.02395798289","NA","NA","91935.84683298832","54630.18245797139","6904.0517499961425","NA","NA","NA","NA","NA","NA","NA","NA","NA","36868.619249988114","NA","91935.96191698452","58061.6015829728","91425.34604197135","NA","54619.55466697691","NA","36867.807291971985","95575.63587499317","NA","32546.39924998628","NA","NA","New experiment","9","28005.364416050725","16","1024"
"58","NA","58","1686","1686","#3d3846","psycho","NA","1","undefined","undefined","1","right","0","0","0","0","0","0","0","16","NA","0","16","0","0","NA","NA","NA","0","NA","NA","NA","NA","NA","0","NA","16","0","16","0","0","0","0","16","0","0","0","NA","Fri Oct 27 22:47:46 2023","20","The main experiment item","yes","CogPsy_Assignment_With_Instruction.osexp","/Users/andrasjoos/Documents/AI Masters/Period 1/Cognitive Psychology/Research project","no","mono","no","18","no","white","no","Arts and Creative Professions","yes","768","/Users/andrasjoos/Documents/AI Masters/Period 1/Cognitive Psychology/Research project/results/subject-9.csv","real","Melodramatic Milgram","4.0.5","photo","right","right","NA","right","right","NA","right","672.0321660104673","2665.9713750123046","NA","3430.277917010244","1687.9761249874718","NA","672.0321660104673","NA","NA","2","real_20","1024","2","48000","-16","experiment","9","odd","32547.54133298411","NA","8750.971499976004","48240.99491699599","NA","16557.85729197669","6871.244666981511","95686.47070799489","NA","NA","96190.47370797489","54630.18245797139","6904.0517499961425","NA","NA","NA","NA","NA","NA","NA","NA","NA","36868.619249988114","NA","96190.59104198823","58061.6015829728","95679.81995799346","NA","54619.55466697691","NA","36867.807291971985","96863.74820797937","NA","32546.39924998628","NA","NA","New experiment","10","28677.396582061192","17","1024"
"55","NA","55","1720","1720","#3d3846","psycho","NA","0","undefined","undefined","0","left","0","0","0","0","0","0","0","17","NA","0","17","0","0","NA","NA","NA","0","NA","NA","NA","NA","NA","0","NA","17","0","17","0","0","0","0","17","0","0","0","NA","Fri Oct 27 22:47:46 2023","20","The main experiment item","yes","CogPsy_Assignment_With_Instruction.osexp","/Users/andrasjoos/Documents/AI Masters/Period 1/Cognitive Psychology/Research project","no","mono","no","18","no","white","no","Arts and Creative Professions","yes","768","/Users/andrasjoos/Documents/AI Masters/Period 1/Cognitive Psychology/Research project/results/subject-9.csv","fake","Melodramatic Milgram","4.0.5","BadInk2","right","right","NA","right","right","NA","right","2297.940958989784","2665.9713750123046","NA","3430.277917010244","1687.9761249874718","NA","2297.940958989784","NA","NA","2","fake_20","1024","2","48000","-16","experiment","9","odd","32547.54133298411","NA","8750.971499976004","48240.99491699599","NA","16557.85729197669","6871.244666981511","96963.70629197918","NA","NA","97467.66999998363","54630.18245797139","6904.0517499961425","NA","NA","NA","NA","NA","NA","NA","NA","NA","36868.619249988114","NA","97467.7845829865","58061.6015829728","96959.08883298398","NA","54619.55466697691","NA","36867.807291971985","99766.86783297919","NA","32546.39924998628","NA","NA","New experiment","10","30975.337541050976","18","1024"
"57","NA","57","1673","1673","#3d3846","psycho","NA","1","undefined","undefined","1","left","0","0","0","0","0","0","0","18","NA","0","18","0","0","NA","NA","NA","0","NA","NA","NA","NA","NA","0","NA","18","0","18","0","0","0","0","18","0","0","0","NA","Fri Oct 27 22:47:46 2023","20","The main experiment item","yes","CogPsy_Assignment_With_Instruction.osexp","/Users/andrasjoos/Documents/AI Masters/Period 1/Cognitive Psychology/Research project","no","mono","no","18","no","white","no","Arts and Creative Professions","yes","768","/Users/andrasjoos/Documents/AI Masters/Period 1/Cognitive Psychology/Research project/results/subject-9.csv","fake","Melodramatic Milgram","4.0.5","DullHologram","left","right","NA","right","right","NA","left","822.6854590175208","2665.9713750123046","NA","3430.277917010244","1687.9761249874718","NA","822.6854590175208","NA","NA","2","fake_20","1024","2","48000","-16","experiment","9","odd","32547.54133298411","NA","8750.971499976004","48240.99491699599","NA","16557.85729197669","6871.244666981511","99859.97983298148","NA","NA","100363.83983297856","54630.18245797139","6904.0517499961425","NA","NA","NA","NA","NA","NA","NA","NA","NA","36868.619249988114","NA","100363.95058297785","58061.6015829728","99853.24299999047","NA","54619.55466697691","NA","36867.807291971985","101187.76949998573","NA","32546.39924998628","NA","NA","New experiment","11","31798.023000068497","19","1024"
"60","NA","60","1650","1650","#3d3846","psycho","NA","1","undefined","undefined","1","left","0","0","0","0","0","0","0","19","NA","0","19","0","0","NA","NA","NA","0","NA","NA","NA","NA","NA","0","NA","19","0","19","0","0","0","0","19","0","0","0","NA","Fri Oct 27 22:47:46 2023","50","The main experiment item","yes","CogPsy_Assignment_With_Instruction.osexp","/Users/andrasjoos/Documents/AI Masters/Period 1/Cognitive Psychology/Research project","no","mono","no","18","no","white","no","Arts and Creative Professions","yes","768","/Users/andrasjoos/Documents/AI Masters/Period 1/Cognitive Psychology/Research project/results/subject-9.csv","fake","Melodramatic Milgram","4.0.5","BadInk","left","right","NA","right","right","NA","left","1206.6088329884224","2665.9713750123046","NA","3430.277917010244","1687.9761249874718","NA","1206.6088329884224","NA","NA","2","fake_2_50","1024","2","48000","-16","experiment","9","odd","32547.54133298411","NA","8750.971499976004","48240.99491699599","NA","16557.85729197669","6871.244666981511","101286.71508299885","NA","NA","101790.68787497818","54630.18245797139","6904.0517499961425","NA","NA","NA","NA","NA","NA","NA","NA","NA","36868.619249988114","NA","101790.79937498318","58061.6015829728","101282.1047079924","NA","54619.55466697691","NA","36867.807291971985","103709.34437497635","NA","32546.39924998628","NA","NA","New experiment","12","33004.63183305692","20","1024"
"61","NA","61","1606","1606","#3d3846","psycho","NA","1","undefined","undefined","1","left","0","0","0","0","0","0","0","20","NA","0","20","0","0","NA","NA","NA","0","NA","NA","NA","NA","NA","0","NA","20","0","20","0","0","0","0","20","0","0","0","NA","Fri Oct 27 22:47:46 2023","50","The main experiment item","yes","CogPsy_Assignment_With_Instruction.osexp","/Users/andrasjoos/Documents/AI Masters/Period 1/Cognitive Psychology/Research project","no","mono","no","18","no","white","no","Arts and Creative Professions","yes","768","/Users/andrasjoos/Documents/AI Masters/Period 1/Cognitive Psychology/Research project/results/subject-9.csv","fake","Melodramatic Milgram","4.0.5","bottom_left","left","right","NA","right","right","NA","left","734.8415839951485","2665.9713750123046","NA","3430.277917010244","1687.9761249874718","NA","734.8415839951485","NA","NA","2","fake_1_50","1024","2","48000","-16","experiment","9","odd","32547.54133298411","NA","8750.971499976004","48240.99491699599","NA","16557.85729197669","6871.244666981511","103808.01287497161","NA","NA","104311.85620799079","54630.18245797139","6904.0517499961425","NA","NA","NA","NA","NA","NA","NA","NA","NA","36868.619249988114","NA","104311.96270798682","58061.6015829728","103799.8997499817","NA","54619.55466697691","NA","36867.807291971985","105047.88391699549","NA","32546.39924998628","NA","NA","New experiment","13","33739.47341705207","21","1024"
"63","NA","63","1566","1566","#3d3846","psycho","NA","1","undefined","undefined","1","left","0","0","0","0","0","0","0","21","NA","0","21","0","0","NA","NA","NA","0","NA","NA","NA","NA","NA","0","NA","21","0","21","0","0","0","0","21","0","0","0","NA","Fri Oct 27 22:47:46 2023","20","The main experiment item","yes","CogPsy_Assignment_With_Instruction.osexp","/Users/andrasjoos/Documents/AI Masters/Period 1/Cognitive Psychology/Research project","no","mono","no","18","no","white","no","Arts and Creative Professions","yes","768","/Users/andrasjoos/Documents/AI Masters/Period 1/Cognitive Psychology/Research project/results/subject-9.csv","fake","Melodramatic Milgram","4.0.5","BadInk","left","right","NA","right","right","NA","left","727.3565840150695","2665.9713750123046","NA","3430.277917010244","1687.9761249874718","NA","727.3565840150695","NA","NA","2","fake_20","1024","2","48000","-16","experiment","9","odd","32547.54133298411","NA","8750.971499976004","48240.99491699599","NA","16557.85729197669","6871.244666981511","105142.43724997505","NA","NA","105646.12762499019","54630.18245797139","6904.0517499961425","NA","NA","NA","NA","NA","NA","NA","NA","NA","36868.619249988114","NA","105646.23295798083","58061.6015829728","105137.91458299966","NA","54619.55466697691","NA","36867.807291971985","106375.04074999015","NA","32546.39924998628","NA","NA","New experiment","14","34466.83000106714","22","1024"
"65","NA","65","1538","1538","#3d3846","psycho","NA","1","undefined","undefined","1","left","0","0","0","0","0","0","0","22","NA","0","22","0","0","NA","NA","NA","0","NA","NA","NA","NA","NA","0","NA","22","0","22","0","0","0","0","22","0","0","0","NA","Fri Oct 27 22:47:46 2023","50","The main experiment item","yes","CogPsy_Assignment_With_Instruction.osexp","/Users/andrasjoos/Documents/AI Masters/Period 1/Cognitive Psychology/Research project","no","mono","no","18","no","white","no","Arts and Creative Professions","yes","768","/Users/andrasjoos/Documents/AI Masters/Period 1/Cognitive Psychology/Research project/results/subject-9.csv","fake","Melodramatic Milgram","4.0.5","PurpleDenomination3","left","right","NA","right","right","NA","left","916.6554579860531","2665.9713750123046","NA","3430.277917010244","1687.9761249874718","NA","916.6554579860531","NA","NA","2","fake_2_50","1024","2","48000","-16","experiment","9","odd","32547.54133298411","NA","8750.971499976004","48240.99491699599","NA","16557.85729197669","6871.244666981511","106478.11162497965","NA","NA","106982.0182499825","54630.18245797139","6904.0517499961425","NA","NA","NA","NA","NA","NA","NA","NA","NA","36868.619249988114","NA","106982.1342919895","58061.6015829728","106473.11074999743","NA","54619.55466697691","NA","36867.807291971985","107899.8938749719","NA","32546.39924998628","NA","NA","New experiment","15","35383.48545905319","23","1024"
"66","NA","66","1506","1506","#3d3846","psycho","NA","1","undefined","undefined","1","right","0","0","0","0","0","0","0","23","NA","0","23","0","0","NA","NA","NA","0","NA","NA","NA","NA","NA","0","NA","23","0","23","0","0","0","0","23","0","0","0","NA","Fri Oct 27 22:47:46 2023","50","The main experiment item","yes","CogPsy_Assignment_With_Instruction.osexp","/Users/andrasjoos/Documents/AI Masters/Period 1/Cognitive Psychology/Research project","no","mono","no","18","no","white","no","Arts and Creative Professions","yes","768","/Users/andrasjoos/Documents/AI Masters/Period 1/Cognitive Psychology/Research project/results/subject-9.csv","real","Melodramatic Milgram","4.0.5","photo_2","right","right","NA","right","right","NA","right","777.9450420057401","2665.9713750123046","NA","3430.277917010244","1687.9761249874718","NA","777.9450420057401","NA","NA","2","real_50","1024","2","48000","-16","experiment","9","odd","32547.54133298411","NA","8750.971499976004","48240.99491699599","NA","16557.85729197669","6871.244666981511","107983.54129199288","NA","NA","108487.91362499469","54630.18245797139","6904.0517499961425","NA","NA","NA","NA","NA","NA","NA","NA","NA","36868.619249988114","NA","108488.03683297592","58061.6015829728","107978.85754198069","NA","54619.55466697691","NA","36867.807291971985","109267.14704197366","NA","32546.39924998628","NA","NA","New experiment","16","36161.43050105893","24","1024"
"64","NA","64","1467","1467","#3d3846","psycho","NA","0","undefined","undefined","0","left","0","0","0","0","0","0","0","24","NA","0","24","0","0","NA","NA","NA","0","NA","NA","NA","NA","NA","0","NA","24","0","24","0","0","0","0","24","0","0","0","NA","Fri Oct 27 22:47:46 2023","20","The main experiment item","yes","CogPsy_Assignment_With_Instruction.osexp","/Users/andrasjoos/Documents/AI Masters/Period 1/Cognitive Psychology/Research project","no","mono","no","18","no","white","no","Arts and Creative Professions","yes","768","/Users/andrasjoos/Documents/AI Masters/Period 1/Cognitive Psychology/Research project/results/subject-9.csv","fake","Melodramatic Milgram","4.0.5","NoNumOnThread_BlurryWatermark","right","right","NA","right","right","NA","right","531.5096669946797","2665.9713750123046","NA","3430.277917010244","1687.9761249874718","NA","531.5096669946797","NA","NA","2","fake_20","1024","2","48000","-16","experiment","9","odd","32547.54133298411","NA","8750.971499976004","48240.99491699599","NA","16557.85729197669","6871.244666981511","109377.83999997191","NA","NA","109882.20587497926","54630.18245797139","6904.0517499961425","NA","NA","NA","NA","NA","NA","NA","NA","NA","36868.619249988114","NA","109882.32862498262","58061.6015829728","109372.68812497496","NA","54619.55466697691","NA","36867.807291971985","110415.09774999577","NA","32546.39924998628","NA","NA","New experiment","16","36692.94016805361","25","1024"
"61","NA","61","1432","1432","#3d3846","psycho","NA","0","undefined","undefined","0","left","0","0","0","0","0","0","0","25","NA","0","25","0","0","NA","NA","NA","0","NA","NA","NA","NA","NA","0","NA","25","0","25","0","0","0","0","25","0","0","0","NA","Fri Oct 27 22:47:46 2023","50","The main experiment item","yes","CogPsy_Assignment_With_Instruction.osexp","/Users/andrasjoos/Documents/AI Masters/Period 1/Cognitive Psychology/Research project","no","mono","no","18","no","white","no","Arts and Creative Professions","yes","768","/Users/andrasjoos/Documents/AI Masters/Period 1/Cognitive Psychology/Research project/results/subject-9.csv","fake","Melodramatic Milgram","4.0.5","PurpleDenomination","right","right","NA","right","right","NA","right","564.2205420008395","2665.9713750123046","NA","3430.277917010244","1687.9761249874718","NA","564.2205420008395","NA","NA","2","fake_2_50","1024","2","48000","-16","experiment","9","odd","32547.54133298411","NA","8750.971499976004","48240.99491699599","NA","16557.85729197669","6871.244666981511","110503.3674579754","NA","NA","111007.45229198947","54630.18245797139","6904.0517499961425","NA","NA","NA","NA","NA","NA","NA","NA","NA","36868.619249988114","NA","111007.57262497791","58061.6015829728","110498.75237498782","NA","54619.55466697691","NA","36867.807291971985","111572.94899999397","NA","32546.39924998628","NA","NA","New experiment","16","37257.16071005445","26","1024"
"62","NA","62","1406","1406","#3d3846","psycho","NA","1","undefined","undefined","1","left","0","0","0","0","0","0","0","26","NA","0","26","0","0","NA","NA","NA","0","NA","NA","NA","NA","NA","0","NA","26","0","26","0","0","0","0","26","0","0","0","NA","Fri Oct 27 22:47:46 2023","50","The main experiment item","yes","CogPsy_Assignment_With_Instruction.osexp","/Users/andrasjoos/Documents/AI Masters/Period 1/Cognitive Psychology/Research project","no","mono","no","18","no","white","no","Arts and Creative Professions","yes","768","/Users/andrasjoos/Documents/AI Masters/Period 1/Cognitive Psychology/Research project/results/subject-9.csv","fake","Melodramatic Milgram","4.0.5","bottom_left","left","right","NA","right","right","NA","left","717.7992090000771","2665.9713750123046","NA","3430.277917010244","1687.9761249874718","NA","717.7992090000771","NA","NA","2","fake_1_50","1024","2","48000","-16","experiment","9","odd","32547.54133298411","NA","8750.971499976004","48240.99491699599","NA","16557.85729197669","6871.244666981511","111641.09458299936","NA","NA","112144.943124993","54630.18245797139","6904.0517499961425","NA","NA","NA","NA","NA","NA","NA","NA","NA","36868.619249988114","NA","112145.05545797874","58061.6015829728","111636.31766699837","NA","54619.55466697691","NA","36867.807291971985","112863.9443749853","NA","32546.39924998628","NA","NA","New experiment","17","37974.95991905453","27","1024"
"60","NA","60","1379","1379","#3d3846","psycho","NA","0","undefined","undefined","0","right","0","0","0","0","0","0","0","27","NA","0","27","0","0","NA","NA","NA","0","NA","NA","NA","NA","NA","0","NA","27","0","27","0","0","0","0","27","0","0","0","NA","Fri Oct 27 22:47:46 2023","50","The main experiment item","yes","CogPsy_Assignment_With_Instruction.osexp","/Users/andrasjoos/Documents/AI Masters/Period 1/Cognitive Psychology/Research project","no","mono","no","18","no","white","no","Arts and Creative Professions","yes","768","/Users/andrasjoos/Documents/AI Masters/Period 1/Cognitive Psychology/Research project/results/subject-9.csv","real","Melodramatic Milgram","4.0.5","genuine","left","right","NA","right","right","NA","left","650.3613749810029","2665.9713750123046","NA","3430.277917010244","1687.9761249874718","NA","650.3613749810029","NA","NA","2","real_20","1024","2","48000","-16","experiment","9","odd","32547.54133298411","NA","8750.971499976004","48240.99491699599","NA","16557.85729197669","6871.244666981511","112934.06937498366","NA","NA","113437.88954199408","54630.18245797139","6904.0517499961425","NA","NA","NA","NA","NA","NA","NA","NA","NA","36868.619249988114","NA","113437.99520799075","58061.6015829728","112929.452707991","NA","54619.55466697691","NA","36867.807291971985","114089.46216697223","NA","32546.39924998628","NA","NA","New experiment","17","38625.32129403553","28","1024"
"62","NA","62","1353","1353","#3d3846","psycho","NA","1","undefined","undefined","1","left","0","0","0","0","0","0","0","28","NA","0","28","0","0","NA","NA","NA","0","NA","NA","NA","NA","NA","0","NA","28","0","28","0","0","0","0","28","0","0","0","NA","Fri Oct 27 22:47:46 2023","20","The main experiment item","yes","CogPsy_Assignment_With_Instruction.osexp","/Users/andrasjoos/Documents/AI Masters/Period 1/Cognitive Psychology/Research project","no","mono","no","18","no","white","no","Arts and Creative Professions","yes","768","/Users/andrasjoos/Documents/AI Masters/Period 1/Cognitive Psychology/Research project/results/subject-9.csv","fake","Melodramatic Milgram","4.0.5","PurpleDenomination","left","right","NA","right","right","NA","left","639.8652080097236","2665.9713750123046","NA","3430.277917010244","1687.9761249874718","NA","639.8652080097236","NA","NA","2","fake_20","1024","2","48000","-16","experiment","9","odd","32547.54133298411","NA","8750.971499976004","48240.99491699599","NA","16557.85729197669","6871.244666981511","114180.28895798489","NA","NA","114683.81470799795","54630.18245797139","6904.0517499961425","NA","NA","NA","NA","NA","NA","NA","NA","NA","36868.619249988114","NA","114683.92399998265","58061.6015829728","114175.61183299404","NA","54619.55466697691","NA","36867.807291971985","115324.89666697802","NA","32546.39924998628","NA","NA","New experiment","18","39265.18650204525","29","1024"
"60","NA","60","1382","1382","#3d3846","psycho","NA","0","undefined","undefined","0","right","0","0","0","0","0","0","0","29","NA","0","29","0","0","NA","NA","NA","0","NA","NA","NA","NA","NA","0","NA","29","0","29","0","0","0","0","29","0","0","0","NA","Fri Oct 27 22:47:46 2023","50","The main experiment item","yes","CogPsy_Assignment_With_Instruction.osexp","/Users/andrasjoos/Documents/AI Masters/Period 1/Cognitive Psychology/Research project","no","mono","no","18","no","white","no","Arts and Creative Professions","yes","768","/Users/andrasjoos/Documents/AI Masters/Period 1/Cognitive Psychology/Research project/results/subject-9.csv","real","Melodramatic Milgram","4.0.5","genuine","left","right","NA","right","right","NA","left","2198.8191250129603","2665.9713750123046","NA","3430.277917010244","1687.9761249874718","NA","2198.8191250129603","NA","NA","2","real_20","1024","2","48000","-16","experiment","9","odd","32547.54133298411","NA","8750.971499976004","48240.99491699599","NA","16557.85729197669","6871.244666981511","115394.34558298672","NA","NA","115898.07337499224","54630.18245797139","6904.0517499961425","NA","NA","NA","NA","NA","NA","NA","NA","NA","36868.619249988114","NA","115898.18483297131","58061.6015829728","115389.64608300012","NA","54619.55466697691","NA","36867.807291971985","118098.24599997955","NA","32546.39924998628","NA","NA","New experiment","18","41464.00562705821","30","1024"
"61","NA","61","1369","1369","#3d3846","psycho","NA","1","undefined","undefined","1","left","0","0","0","0","0","0","0","30","NA","0","30","0","0","NA","NA","NA","0","NA","NA","NA","NA","NA","0","NA","30","0","30","0","0","0","0","30","0","0","0","NA","Fri Oct 27 22:47:46 2023","50","The main experiment item","yes","CogPsy_Assignment_With_Instruction.osexp","/Users/andrasjoos/Documents/AI Masters/Period 1/Cognitive Psychology/Research project","no","mono","no","18","no","white","no","Arts and Creative Professions","yes","768","/Users/andrasjoos/Documents/AI Masters/Period 1/Cognitive Psychology/Research project/results/subject-9.csv","fake","Melodramatic Milgram","4.0.5","PurpleDenomination3","left","right","NA","right","right","NA","left","981.2149589997716","2665.9713750123046","NA","3430.277917010244","1687.9761249874718","NA","981.2149589997716","NA","NA","2","fake_2_50","1024","2","48000","-16","experiment","9","odd","32547.54133298411","NA","8750.971499976004","48240.99491699599","NA","16557.85729197669","6871.244666981511","118190.34658299643","NA","NA","118694.66287497198","54630.18245797139","6904.0517499961425","NA","NA","NA","NA","NA","NA","NA","NA","NA","36868.619249988114","NA","118694.78420799715","58061.6015829728","118183.66949999472","NA","54619.55466697691","NA","36867.807291971985","119677.15841697645","NA","32546.39924998628","NA","NA","New experiment","19","42445.220586057985","31","1024"
"62","NA","62","1340","1340","#3d3846","psycho","NA","1","undefined","undefined","1","left","0","0","0","0","0","0","0","31","NA","0","31","0","0","NA","NA","NA","0","NA","NA","NA","NA","NA","0","NA","31","0","31","0","0","0","0","31","0","0","0","NA","Fri Oct 27 22:47:46 2023","50","The main experiment item","yes","CogPsy_Assignment_With_Instruction.osexp","/Users/andrasjoos/Documents/AI Masters/Period 1/Cognitive Psychology/Research project","no","mono","no","18","no","white","no","Arts and Creative Professions","yes","768","/Users/andrasjoos/Documents/AI Masters/Period 1/Cognitive Psychology/Research project/results/subject-9.csv","fake","Melodramatic Milgram","4.0.5","BadInk","left","right","NA","right","right","NA","left","444.642999995267","2665.9713750123046","NA","3430.277917010244","1687.9761249874718","NA","444.642999995267","NA","NA","2","fake_2_50","1024","2","48000","-16","experiment","9","odd","32547.54133298411","NA","8750.971499976004","48240.99491699599","NA","16557.85729197669","6871.244666981511","119777.31908299029","NA","NA","120281.12191698165","54630.18245797139","6904.0517499961425","NA","NA","NA","NA","NA","NA","NA","NA","NA","36868.619249988114","NA","120281.23004199006","58061.6015829728","119771.88149999711","NA","54619.55466697691","NA","36867.807291971985","120727.05291697639","NA","32546.39924998628","NA","NA","New experiment","20","42889.86358605325","32","1024"
"63","NA","63","1318","1318","#3d3846","psycho","NA","1","undefined","undefined","1","right","0","0","0","0","0","0","0","32","NA","0","32","0","0","NA","NA","NA","0","NA","NA","NA","NA","NA","0","NA","32","0","32","0","0","0","0","32","0","0","0","NA","Fri Oct 27 22:47:46 2023","50","The main experiment item","yes","CogPsy_Assignment_With_Instruction.osexp","/Users/andrasjoos/Documents/AI Masters/Period 1/Cognitive Psychology/Research project","no","mono","no","18","no","white","no","Arts and Creative Professions","yes","768","/Users/andrasjoos/Documents/AI Masters/Period 1/Cognitive Psychology/Research project/results/subject-9.csv","real","Melodramatic Milgram","4.0.5","photo_2","right","right","NA","right","right","NA","right","620.8238340041135","2665.9713750123046","NA","3430.277917010244","1687.9761249874718","NA","620.8238340041135","NA","NA","2","real_50","1024","2","48000","-16","experiment","9","odd","32547.54133298411","NA","8750.971499976004","48240.99491699599","NA","16557.85729197669","6871.244666981511","120810.60970798717","NA","NA","121314.09533298574","54630.18245797139","6904.0517499961425","NA","NA","NA","NA","NA","NA","NA","NA","NA","36868.619249988114","NA","121314.19508298859","58061.6015829728","120806.33191697416","NA","54619.55466697691","NA","36867.807291971985","121936.12649998977","NA","32546.39924998628","NA","NA","New experiment","21","43510.687420057366","33","1024"
"64","NA","64","1290","1290","#3d3846","psycho","NA","1","undefined","undefined","1","right","0","0","0","0","0","0","0","33","NA","0","33","0","0","NA","NA","NA","0","NA","NA","NA","NA","NA","0","NA","33","0","33","0","0","0","0","33","0","0","0","NA","Fri Oct 27 22:47:46 2023","20","The main experiment item","yes","CogPsy_Assignment_With_Instruction.osexp","/Users/andrasjoos/Documents/AI Masters/Period 1/Cognitive Psychology/Research project","no","mono","no","18","no","white","no","Arts and Creative Professions","yes","768","/Users/andrasjoos/Documents/AI Masters/Period 1/Cognitive Psychology/Research project/results/subject-9.csv","real","Melodramatic Milgram","4.0.5","photo","right","right","NA","right","right","NA","right","382.54620900261216","2665.9713750123046","NA","3430.277917010244","1687.9761249874718","NA","382.54620900261216","NA","NA","2","real_20","1024","2","48000","-16","experiment","9","odd","32547.54133298411","NA","8750.971499976004","48240.99491699599","NA","16557.85729197669","6871.244666981511","122045.73416698258","NA","NA","122549.44849997992","54630.18245797139","6904.0517499961425","NA","NA","NA","NA","NA","NA","NA","NA","NA","36868.619249988114","NA","122549.55045797396","58061.6015829728","122040.50499998266","NA","54619.55466697691","NA","36867.807291971985","122933.2880829752","NA","32546.39924998628","NA","NA","New experiment","22","43893.23362905998","34","1024"
"65","NA","65","1267","1267","#3d3846","psycho","NA","1","undefined","undefined","1","left","0","0","0","0","0","0","0","34","NA","0","34","0","0","NA","NA","NA","0","NA","NA","NA","NA","NA","0","NA","34","0","34","0","0","0","0","34","0","0","0","NA","Fri Oct 27 22:47:46 2023","20","The main experiment item","yes","CogPsy_Assignment_With_Instruction.osexp","/Users/andrasjoos/Documents/AI Masters/Period 1/Cognitive Psychology/Research project","no","mono","no","18","no","white","no","Arts and Creative Professions","yes","768","/Users/andrasjoos/Documents/AI Masters/Period 1/Cognitive Psychology/Research project/results/subject-9.csv","fake","Melodramatic Milgram","4.0.5","BrownDenomination","left","right","NA","right","right","NA","left","484.7041250031907","2665.9713750123046","NA","3430.277917010244","1687.9761249874718","NA","484.7041250031907","NA","NA","2","fake_20","1024","2","48000","-16","experiment","9","odd","32547.54133298411","NA","8750.971499976004","48240.99491699599","NA","16557.85729197669","6871.244666981511","123023.60020799097","NA","NA","123527.11608298705","54630.18245797139","6904.0517499961425","NA","NA","NA","NA","NA","NA","NA","NA","NA","36868.619249988114","NA","123527.22345798975","58061.6015829728","123019.46508299443","NA","54619.55466697691","NA","36867.807291971985","124012.96074999846","NA","32546.39924998628","NA","NA","New experiment","23","44377.93775406317","35","1024"
"63","NA","63","1246","1246","#3d3846","psycho","NA","0","undefined","undefined","0","right","0","0","0","0","0","0","0","35","NA","0","35","0","0","NA","NA","NA","0","NA","NA","NA","NA","NA","0","NA","35","0","35","0","0","0","0","35","0","0","0","NA","Fri Oct 27 22:47:46 2023","20","The main experiment item","yes","CogPsy_Assignment_With_Instruction.osexp","/Users/andrasjoos/Documents/AI Masters/Period 1/Cognitive Psychology/Research project","no","mono","no","18","no","white","no","Arts and Creative Professions","yes","768","/Users/andrasjoos/Documents/AI Masters/Period 1/Cognitive Psychology/Research project/results/subject-9.csv","real","Melodramatic Milgram","4.0.5","genuine","left","right","NA","right","right","NA","left","509.365624981001","2665.9713750123046","NA","3430.277917010244","1687.9761249874718","NA","509.365624981001","NA","NA","2","real_20","1024","2","48000","-16","experiment","9","odd","32547.54133298411","NA","8750.971499976004","48240.99491699599","NA","16557.85729197669","6871.244666981511","124082.8590419842","NA","NA","124586.3955419918","54630.18245797139","6904.0517499961425","NA","NA","NA","NA","NA","NA","NA","NA","NA","36868.619249988114","NA","124586.49408299243","58061.6015829728","124078.65145799587","NA","54619.55466697691","NA","36867.807291971985","125096.91070797271","NA","32546.39924998628","NA","NA","New experiment","23","44887.30337904417","36","1024"
"64","NA","64","1225","1225","#3d3846","psycho","NA","1","undefined","undefined","1","left","0","0","0","0","0","0","0","36","NA","0","36","0","0","NA","NA","NA","0","NA","NA","NA","NA","NA","0","NA","36","0","36","0","0","0","0","36","0","0","0","NA","Fri Oct 27 22:47:46 2023","20","The main experiment item","yes","CogPsy_Assignment_With_Instruction.osexp","/Users/andrasjoos/Documents/AI Masters/Period 1/Cognitive Psychology/Research project","no","mono","no","18","no","white","no","Arts and Creative Professions","yes","768","/Users/andrasjoos/Documents/AI Masters/Period 1/Cognitive Psychology/Research project/results/subject-9.csv","fake","Melodramatic Milgram","4.0.5","BadInk2","left","right","NA","right","right","NA","left","463.93991602235474","2665.9713750123046","NA","3430.277917010244","1687.9761249874718","NA","463.93991602235474","NA","NA","2","fake_20","1024","2","48000","-16","experiment","9","odd","32547.54133298411","NA","8750.971499976004","48240.99491699599","NA","16557.85729197669","6871.244666981511","125196.43579199328","NA","NA","125699.9324169883","54630.18245797139","6904.0517499961425","NA","NA","NA","NA","NA","NA","NA","NA","NA","36868.619249988114","NA","125700.02966697211","58061.6015829728","125192.23499999498","NA","54619.55466697691","NA","36867.807291971985","126165.05391697865","NA","32546.39924998628","NA","NA","New experiment","24","45351.243295066524","37","1024"
"65","NA","65","1218","1218","#3d3846","psycho","NA","1","undefined","undefined","1","left","0","0","0","0","0","0","0","37","NA","0","37","0","0","NA","NA","NA","0","NA","NA","NA","NA","NA","0","NA","37","0","37","0","0","0","0","37","0","0","0","NA","Fri Oct 27 22:47:46 2023","20","The main experiment item","yes","CogPsy_Assignment_With_Instruction.osexp","/Users/andrasjoos/Documents/AI Masters/Period 1/Cognitive Psychology/Research project","no","mono","no","18","no","white","no","Arts and Creative Professions","yes","768","/Users/andrasjoos/Documents/AI Masters/Period 1/Cognitive Psychology/Research project/results/subject-9.csv","fake","Melodramatic Milgram","4.0.5","DullHologram","left","right","NA","right","right","NA","left","935.9489580092486","2665.9713750123046","NA","3430.277917010244","1687.9761249874718","NA","935.9489580092486","NA","NA","2","fake_20","1024","2","48000","-16","experiment","9","odd","32547.54133298411","NA","8750.971499976004","48240.99491699599","NA","16557.85729197669","6871.244666981511","126256.00779199158","NA","NA","126759.98058298137","54630.18245797139","6904.0517499961425","NA","NA","NA","NA","NA","NA","NA","NA","NA","36868.619249988114","NA","126760.11141698109","58061.6015829728","126251.38954198337","NA","54619.55466697691","NA","36867.807291971985","127697.29254199774","NA","32546.39924998628","NA","NA","New experiment","25","46287.19225307577","38","1024"
"64","NA","64","1199","1199","#3d3846","psycho","NA","0","undefined","undefined","0","left","0","0","0","0","0","0","0","38","NA","0","38","0","0","NA","NA","NA","0","NA","NA","NA","NA","NA","0","NA","38","0","38","0","0","0","0","38","0","0","0","NA","Fri Oct 27 22:47:46 2023","50","The main experiment item","yes","CogPsy_Assignment_With_Instruction.osexp","/Users/andrasjoos/Documents/AI Masters/Period 1/Cognitive Psychology/Research project","no","mono","no","18","no","white","no","Arts and Creative Professions","yes","768","/Users/andrasjoos/Documents/AI Masters/Period 1/Cognitive Psychology/Research project/results/subject-9.csv","fake","Melodramatic Milgram","4.0.5","NoNumOnThread_BlurryWatermark","right","right","NA","right","right","NA","right","501.4318329922389","2665.9713750123046","NA","3430.277917010244","1687.9761249874718","NA","501.4318329922389","NA","NA","2","fake_2_50","1024","2","48000","-16","experiment","9","odd","32547.54133298411","NA","8750.971499976004","48240.99491699599","NA","16557.85729197669","6871.244666981511","127787.64845797559","NA","NA","128291.35295798187","54630.18245797139","6904.0517499961425","NA","NA","NA","NA","NA","NA","NA","NA","NA","36868.619249988114","NA","128291.46054197918","58061.6015829728","127783.01520799869","NA","54619.55466697691","NA","36867.807291971985","128793.9825829817","NA","32546.39924998628","NA","NA","New experiment","25","46788.62408606801","39","1024"
"65","NA","65","1187","1187","#3d3846","psycho","NA","1","undefined","undefined","1","left","0","0","0","0","0","0","0","39","NA","0","39","0","0","NA","NA","NA","0","NA","NA","NA","NA","NA","0","NA","39","0","39","0","0","0","0","39","0","0","0","NA","Fri Oct 27 22:47:46 2023","20","The main experiment item","yes","CogPsy_Assignment_With_Instruction.osexp","/Users/andrasjoos/Documents/AI Masters/Period 1/Cognitive Psychology/Research project","no","mono","no","18","no","white","no","Arts and Creative Professions","yes","768","/Users/andrasjoos/Documents/AI Masters/Period 1/Cognitive Psychology/Research project/results/subject-9.csv","fake","Melodramatic Milgram","4.0.5","silver_strip","left","right","NA","right","right","NA","left","714.093665999826","2665.9713750123046","NA","3430.277917010244","1687.9761249874718","NA","714.093665999826","NA","NA","2","fake_2_20","1024","2","48000","-16","experiment","9","odd","32547.54133298411","NA","8750.971499976004","48240.99491699599","NA","16557.85729197669","6871.244666981511","128869.13629199262","NA","NA","129373.00874997163","54630.18245797139","6904.0517499961425","NA","NA","NA","NA","NA","NA","NA","NA","NA","36868.619249988114","NA","129373.1189169921","58061.6015829728","128864.69887499698","NA","54619.55466697691","NA","36867.807291971985","130088.65516699734","NA","32546.39924998628","NA","NA","New experiment","26","47502.71775206784","40","1024"
"65","NA","65","1170","1170","#3d3846","psycho","NA","1","undefined","undefined","1","right","0","0","0","0","0","0","0","40","NA","0","40","0","0","NA","NA","NA","0","NA","NA","NA","NA","NA","0","NA","40","0","40","0","0","0","0","40","0","0","0","NA","Fri Oct 27 22:47:46 2023","50","The main experiment item","yes","CogPsy_Assignment_With_Instruction.osexp","/Users/andrasjoos/Documents/AI Masters/Period 1/Cognitive Psychology/Research project","no","mono","no","18","no","white","no","Arts and Creative Professions","yes","768","/Users/andrasjoos/Documents/AI Masters/Period 1/Cognitive Psychology/Research project/results/subject-9.csv","real","Melodramatic Milgram","4.0.5","photo_2","right","right","NA","right","right","NA","right","493.8006669981405","2665.9713750123046","NA","3430.277917010244","1687.9761249874718","NA","493.8006669981405","NA","NA","2","real_50","1024","2","48000","-16","experiment","9","odd","32547.54133298411","NA","8750.971499976004","48240.99491699599","NA","16557.85729197669","6871.244666981511","130171.27608298324","NA","NA","130674.94804199669","54630.18245797139","6904.0517499961425","NA","NA","NA","NA","NA","NA","NA","NA","NA","36868.619249988114","NA","130675.0535829924","58061.6015829728","130166.67629199219","NA","54619.55466697691","NA","36867.807291971985","131169.97120797168","NA","32546.39924998628","NA","NA","New experiment","27","47996.51841906598","41","1024"
"66","NA","66","1169","1169","#3d3846","psycho","NA","1","undefined","undefined","1","right","0","0","0","0","0","0","0","41","NA","0","41","0","0","NA","NA","NA","0","NA","NA","NA","NA","NA","0","NA","41","0","41","0","0","0","0","41","0","0","0","NA","Fri Oct 27 22:47:46 2023","50","The main experiment item","yes","CogPsy_Assignment_With_Instruction.osexp","/Users/andrasjoos/Documents/AI Masters/Period 1/Cognitive Psychology/Research project","no","mono","no","18","no","white","no","Arts and Creative Professions","yes","768","/Users/andrasjoos/Documents/AI Masters/Period 1/Cognitive Psychology/Research project/results/subject-9.csv","real","Melodramatic Milgram","4.0.5","photo","right","right","NA","right","right","NA","right","1133.8447500020266","2665.9713750123046","NA","3430.277917010244","1687.9761249874718","NA","1133.8447500020266","NA","NA","2","real_50","1024","2","48000","-16","experiment","9","odd","32547.54133298411","NA","8750.971499976004","48240.99491699599","NA","16557.85729197669","6871.244666981511","131262.26058299653","NA","NA","131766.09424999333","54630.18245797139","6904.0517499961425","NA","NA","NA","NA","NA","NA","NA","NA","NA","36868.619249988114","NA","131766.20849999017","58061.6015829728","131257.64074997278","NA","54619.55466697691","NA","36867.807291971985","132901.24874998583","NA","32546.39924998628","NA","NA","New experiment","28","49130.363169068005","42","1024"
"67","NA","67","1155","1155","#3d3846","psycho","NA","1","undefined","undefined","1","left","0","0","0","0","0","0","0","42","NA","0","42","0","0","NA","NA","NA","0","NA","NA","NA","NA","NA","0","NA","42","0","42","0","0","0","0","42","0","0","0","NA","Fri Oct 27 22:47:46 2023","50","The main experiment item","yes","CogPsy_Assignment_With_Instruction.osexp","/Users/andrasjoos/Documents/AI Masters/Period 1/Cognitive Psychology/Research project","no","mono","no","18","no","white","no","Arts and Creative Professions","yes","768","/Users/andrasjoos/Documents/AI Masters/Period 1/Cognitive Psychology/Research project/results/subject-9.csv","fake","Melodramatic Milgram","4.0.5","silver_strip","left","right","NA","right","right","NA","left","569.5315829943866","2665.9713750123046","NA","3430.277917010244","1687.9761249874718","NA","569.5315829943866","NA","NA","2","fake_2_50","1024","2","48000","-16","experiment","9","odd","32547.54133298411","NA","8750.971499976004","48240.99491699599","NA","16557.85729197669","6871.244666981511","132972.53083297983","NA","NA","133476.1675829941","54630.18245797139","6904.0517499961425","NA","NA","NA","NA","NA","NA","NA","NA","NA","36868.619249988114","NA","133476.27504199045","58061.6015829728","132967.86429197527","NA","54619.55466697691","NA","36867.807291971985","134047.19783298788","NA","32546.39924998628","NA","NA","New experiment","29","49699.89475206239","43","1024"
"68","NA","68","1182","1182","#3d3846","psycho","NA","1","undefined","undefined","1","left","0","0","0","0","0","0","0","43","NA","0","43","0","0","NA","NA","NA","0","NA","NA","NA","NA","NA","0","NA","43","0","43","0","0","0","0","43","0","0","0","NA","Fri Oct 27 22:47:46 2023","20","The main experiment item","yes","CogPsy_Assignment_With_Instruction.osexp","/Users/andrasjoos/Documents/AI Masters/Period 1/Cognitive Psychology/Research project","no","mono","no","18","no","white","no","Arts and Creative Professions","yes","768","/Users/andrasjoos/Documents/AI Masters/Period 1/Cognitive Psychology/Research project/results/subject-9.csv","fake","Melodramatic Milgram","4.0.5","silver_strip","left","right","NA","right","right","NA","left","2320.9351249970496","2665.9713750123046","NA","3430.277917010244","1687.9761249874718","NA","2320.9351249970496","NA","NA","2","fake_2_20","1024","2","48000","-16","experiment","9","odd","32547.54133298411","NA","8750.971499976004","48240.99491699599","NA","16557.85729197669","6871.244666981511","134122.20783298835","NA","NA","134626.1274169956","54630.18245797139","6904.0517499961425","NA","NA","NA","NA","NA","NA","NA","NA","NA","36868.619249988114","NA","134626.23370799702","58061.6015829728","134117.3969169904","NA","54619.55466697691","NA","36867.807291971985","136948.4349579725","NA","32546.39924998628","NA","NA","New experiment","30","52020.82987705944","44","1024"
"66","NA","66","1203","1203","#3d3846","psycho","NA","0","undefined","undefined","0","right","0","0","0","0","0","0","0","44","NA","0","44","0","0","NA","NA","NA","0","NA","NA","NA","NA","NA","0","NA","44","0","44","0","0","0","0","44","0","0","0","NA","Fri Oct 27 22:47:46 2023","50","The main experiment item","yes","CogPsy_Assignment_With_Instruction.osexp","/Users/andrasjoos/Documents/AI Masters/Period 1/Cognitive Psychology/Research project","no","mono","no","18","no","white","no","Arts and Creative Professions","yes","768","/Users/andrasjoos/Documents/AI Masters/Period 1/Cognitive Psychology/Research project/results/subject-9.csv","real","Melodramatic Milgram","4.0.5","genuine","left","right","NA","right","right","NA","left","2127.694166993024","2665.9713750123046","NA","3430.277917010244","1687.9761249874718","NA","2127.694166993024","NA","NA","2","real_50","1024","2","48000","-16","experiment","9","odd","32547.54133298411","NA","8750.971499976004","48240.99491699599","NA","16557.85729197669","6871.244666981511","137020.65112499986","NA","NA","137524.6336249984","54630.18245797139","6904.0517499961425","NA","NA","NA","NA","NA","NA","NA","NA","NA","36868.619249988114","NA","137524.78087498457","58061.6015829728","137014.01862499188","NA","54619.55466697691","NA","36867.807291971985","139653.73862499837","NA","32546.39924998628","NA","NA","New experiment","30","54148.524044052465","45","1024"
"65","NA","65","1188","1188","#3d3846","psycho","NA","0","undefined","undefined","0","left","0","0","0","0","0","0","0","45","NA","0","45","0","0","NA","NA","NA","0","NA","NA","NA","NA","NA","0","NA","45","0","45","0","0","0","0","45","0","0","0","NA","Fri Oct 27 22:47:46 2023","20","The main experiment item","yes","CogPsy_Assignment_With_Instruction.osexp","/Users/andrasjoos/Documents/AI Masters/Period 1/Cognitive Psychology/Research project","no","mono","no","18","no","white","no","Arts and Creative Professions","yes","768","/Users/andrasjoos/Documents/AI Masters/Period 1/Cognitive Psychology/Research project/results/subject-9.csv","fake","Melodramatic Milgram","4.0.5","NoNumOnThread_BlurryWatermark","right","right","NA","right","right","NA","right","544.3197910208255","2665.9713750123046","NA","3430.277917010244","1687.9761249874718","NA","544.3197910208255","NA","NA","2","fake_20","1024","2","48000","-16","experiment","9","odd","32547.54133298411","NA","8750.971499976004","48240.99491699599","NA","16557.85729197669","6871.244666981511","139764.93316699634","NA","NA","140269.23183299368","54630.18245797139","6904.0517499961425","NA","NA","NA","NA","NA","NA","NA","NA","NA","36868.619249988114","NA","140269.34529197752","58061.6015829728","139757.63687497238","NA","54619.55466697691","NA","36867.807291971985","140814.90145798307","NA","32546.39924998628","NA","NA","New experiment","30","54692.84383507329","46","1024"
"65","NA","65","1250","1250","#3d3846","psycho","NA","1","undefined","undefined","1","left","0","0","0","0","0","0","0","46","NA","0","46","0","0","NA","NA","NA","0","NA","NA","NA","NA","NA","0","NA","46","0","46","0","0","0","0","46","0","0","0","NA","Fri Oct 27 22:47:46 2023","20","The main experiment item","yes","CogPsy_Assignment_With_Instruction.osexp","/Users/andrasjoos/Documents/AI Masters/Period 1/Cognitive Psychology/Research project","no","mono","no","18","no","white","no","Arts and Creative Professions","yes","768","/Users/andrasjoos/Documents/AI Masters/Period 1/Cognitive Psychology/Research project/results/subject-9.csv","fake","Melodramatic Milgram","4.0.5","bottom_left","left","right","NA","right","right","NA","left","4089.062457991531","2665.9713750123046","NA","3430.277917010244","1687.9761249874718","NA","4089.062457991531","NA","NA","2","fake_1_20","1024","2","48000","-16","experiment","9","odd","32547.54133298411","NA","8750.971499976004","48240.99491699599","NA","16557.85729197669","6871.244666981511","140887.0474169962","NA","NA","141390.68174999557","54630.18245797139","6904.0517499961425","NA","NA","NA","NA","NA","NA","NA","NA","NA","36868.619249988114","NA","141390.78816698748","58061.6015829728","140882.74370797444","NA","54619.55466697691","NA","36867.807291971985","145481.08149998006","NA","32546.39924998628","NA","NA","New experiment","31","58781.90629306482","47","1024"
"64","NA","64","1279","1279","#3d3846","psycho","NA","0","undefined","undefined","0","right","0","0","0","0","0","0","0","47","NA","0","47","0","0","NA","NA","NA","0","NA","NA","NA","NA","NA","0","NA","47","0","47","0","0","0","0","47","0","0","0","NA","Fri Oct 27 22:47:46 2023","50","The main experiment item","yes","CogPsy_Assignment_With_Instruction.osexp","/Users/andrasjoos/Documents/AI Masters/Period 1/Cognitive Psychology/Research project","no","mono","no","18","no","white","no","Arts and Creative Professions","yes","768","/Users/andrasjoos/Documents/AI Masters/Period 1/Cognitive Psychology/Research project/results/subject-9.csv","real","Melodramatic Milgram","4.0.5","photo","left","right","NA","right","right","NA","left","2616.843916999642","2665.9713750123046","NA","3430.277917010244","1687.9761249874718","NA","2616.843916999642","NA","NA","2","real_50","1024","2","48000","-16","experiment","9","odd","32547.54133298411","NA","8750.971499976004","48240.99491699599","NA","16557.85729197669","6871.244666981511","145573.97866697283","NA","NA","146077.87674997235","54630.18245797139","6904.0517499961425","NA","NA","NA","NA","NA","NA","NA","NA","NA","36868.619249988114","NA","146077.98245799495","58061.6015829728","145568.24512497406","NA","54619.55466697691","NA","36867.807291971985","148696.1402919842","NA","32546.39924998628","NA","NA","New experiment","31","61398.75021006446","48","1024"
"65","NA","65","1314","1314","#3d3846","psycho","NA","1","undefined","undefined","1","left","0","0","0","0","0","0","0","48","NA","0","48","0","0","NA","NA","NA","0","NA","NA","NA","NA","NA","0","NA","48","0","48","0","0","0","0","48","0","0","0","NA","Fri Oct 27 22:47:46 2023","50","The main experiment item","yes","CogPsy_Assignment_With_Instruction.osexp","/Users/andrasjoos/Documents/AI Masters/Period 1/Cognitive Psychology/Research project","no","mono","no","18","no","white","no","Arts and Creative Professions","yes","768","/Users/andrasjoos/Documents/AI Masters/Period 1/Cognitive Psychology/Research project/results/subject-9.csv","fake","Melodramatic Milgram","4.0.5","silver_strip","left","right","NA","right","right","NA","left","3022.4211659806315","2665.9713750123046","NA","3430.277917010244","1687.9761249874718","NA","3022.4211659806315","NA","NA","2","fake_2_50","1024","2","48000","-16","experiment","9","odd","32547.54133298411","NA","8750.971499976004","48240.99491699599","NA","16557.85729197669","6871.244666981511","148767.29074999457","NA","NA","149271.38437499525","54630.18245797139","6904.0517499961425","NA","NA","NA","NA","NA","NA","NA","NA","NA","36868.619249988114","NA","149271.50291699218","58061.6015829728","148761.198082997","NA","54619.55466697691","NA","36867.807291971985","152295.173874998","NA","32546.39924998628","NA","NA","New experiment","32","64421.171376045095","49","1024"
"64","NA","64","1311","1311","#3d3846","psycho","NA","0","undefined","undefined","0","right","0","0","0","0","0","0","0","49","NA","0","49","0","0","NA","NA","NA","0","NA","NA","NA","NA","NA","0","NA","49","0","49","0","0","0","0","49","0","0","0","NA","Fri Oct 27 22:47:46 2023","50","The main experiment item","yes","CogPsy_Assignment_With_Instruction.osexp","/Users/andrasjoos/Documents/AI Masters/Period 1/Cognitive Psychology/Research project","no","mono","no","18","no","white","no","Arts and Creative Professions","yes","768","/Users/andrasjoos/Documents/AI Masters/Period 1/Cognitive Psychology/Research project/results/subject-9.csv","real","Melodramatic Milgram","4.0.5","photo","left","right","NA","right","right","NA","left","1167.406958003994","2665.9713750123046","NA","3430.277917010244","1687.9761249874718","NA","1167.406958003994","NA","NA","2","real_50","1024","2","48000","-16","experiment","9","odd","32547.54133298411","NA","8750.971499976004","48240.99491699599","NA","16557.85729197669","6871.244666981511","152388.31270797527","NA","NA","152892.37299998058","54630.18245797139","6904.0517499961425","NA","NA","NA","NA","NA","NA","NA","NA","NA","36868.619249988114","NA","152892.49137497973","58061.6015829728","152381.1324579874","NA","54619.55466697691","NA","36867.807291971985","154061.03695798083","NA","32546.39924998628","NA","NA","New experiment","32","65588.57833404909","50","1024"
"64","NA","64","1298","1298","#3d3846","psycho","NA","1","undefined","undefined","1","right","0","0","0","0","0","0","0","50","NA","0","50","0","0","NA","NA","NA","0","NA","NA","NA","NA","NA","0","NA","50","0","50","0","0","0","0","50","0","0","0","NA","Fri Oct 27 22:47:46 2023","20","The main experiment item","yes","CogPsy_Assignment_With_Instruction.osexp","/Users/andrasjoos/Documents/AI Masters/Period 1/Cognitive Psychology/Research project","no","mono","no","18","no","white","no","Arts and Creative Professions","yes","768","/Users/andrasjoos/Documents/AI Masters/Period 1/Cognitive Psychology/Research project/results/subject-9.csv","real","Melodramatic Milgram","4.0.5","photo","right","right","NA","right","right","NA","right","656.2643330253195","2665.9713750123046","NA","3430.277917010244","1687.9761249874718","NA","656.2643330253195","NA","NA","2","real_20","1024","2","48000","-16","experiment","9","odd","32547.54133298411","NA","8750.971499976004","48240.99491699599","NA","16557.85729197669","6871.244666981511","154171.2684169761","NA","NA","154675.47795799328","54630.18245797139","6904.0517499961425","NA","NA","NA","NA","NA","NA","NA","NA","NA","36868.619249988114","NA","154675.59787497157","58061.6015829728","154165.25666697999","NA","54619.55466697691","NA","36867.807291971985","155333.00208297442","NA","32546.39924998628","NA","NA","New experiment","33","66244.84266707441","51","1024"
"63","NA","63","1286","1286","#3d3846","psycho","NA","0","undefined","undefined","0","right","0","0","0","0","0","0","0","51","NA","0","51","0","0","NA","NA","NA","0","NA","NA","NA","NA","NA","0","NA","51","0","51","0","0","0","0","51","0","0","0","NA","Fri Oct 27 22:47:46 2023","50","The main experiment item","yes","CogPsy_Assignment_With_Instruction.osexp","/Users/andrasjoos/Documents/AI Masters/Period 1/Cognitive Psychology/Research project","no","mono","no","18","no","white","no","Arts and Creative Professions","yes","768","/Users/andrasjoos/Documents/AI Masters/Period 1/Cognitive Psychology/Research project/results/subject-9.csv","real","Melodramatic Milgram","4.0.5","genuine","left","right","NA","right","right","NA","left","656.5244999947026","2665.9713750123046","NA","3430.277917010244","1687.9761249874718","NA","656.5244999947026","NA","NA","2","real_50","1024","2","48000","-16","experiment","9","odd","32547.54133298411","NA","8750.971499976004","48240.99491699599","NA","16557.85729197669","6871.244666981511","155402.76904197526","NA","NA","155906.38024997315","54630.18245797139","6904.0517499961425","NA","NA","NA","NA","NA","NA","NA","NA","NA","36868.619249988114","NA","155906.4780419867","58061.6015829728","155398.52029198664","NA","54619.55466697691","NA","36867.807291971985","156564.5629579958","NA","32546.39924998628","NA","NA","New experiment","33","66901.36716706911","52","1024"
"64","NA","64","1272","1272","#3d3846","psycho","NA","1","undefined","undefined","1","left","0","0","0","0","0","0","0","52","NA","0","52","0","0","NA","NA","NA","0","NA","NA","NA","NA","NA","0","NA","52","0","52","0","0","0","0","52","0","0","0","NA","Fri Oct 27 22:47:46 2023","50","The main experiment item","yes","CogPsy_Assignment_With_Instruction.osexp","/Users/andrasjoos/Documents/AI Masters/Period 1/Cognitive Psychology/Research project","no","mono","no","18","no","white","no","Arts and Creative Professions","yes","768","/Users/andrasjoos/Documents/AI Masters/Period 1/Cognitive Psychology/Research project/results/subject-9.csv","fake","Melodramatic Milgram","4.0.5","GreyDenomination","left","right","NA","right","right","NA","left","563.7452499940991","2665.9713750123046","NA","3430.277917010244","1687.9761249874718","NA","563.7452499940991","NA","NA","2","fake_2_50","1024","2","48000","-16","experiment","9","odd","32547.54133298411","NA","8750.971499976004","48240.99491699599","NA","16557.85729197669","6871.244666981511","156657.78687497368","NA","NA","157161.3550829934","54630.18245797139","6904.0517499961425","NA","NA","NA","NA","NA","NA","NA","NA","NA","36868.619249988114","NA","157161.46383297746","58061.6015829728","156653.1433329801","NA","54619.55466697691","NA","36867.807291971985","157726.4316669898","NA","32546.39924998628","NA","NA","New experiment","34","67465.11241706321","53","1024"
"64","NA","64","1258","1258","#3d3846","psycho","NA","1","undefined","undefined","1","left","0","0","0","0","0","0","0","53","NA","0","53","0","0","NA","NA","NA","0","NA","NA","NA","NA","NA","0","NA","53","0","53","0","0","0","0","53","0","0","0","NA","Fri Oct 27 22:47:46 2023","20","The main experiment item","yes","CogPsy_Assignment_With_Instruction.osexp","/Users/andrasjoos/Documents/AI Masters/Period 1/Cognitive Psychology/Research project","no","mono","no","18","no","white","no","Arts and Creative Professions","yes","768","/Users/andrasjoos/Documents/AI Masters/Period 1/Cognitive Psychology/Research project/results/subject-9.csv","fake","Melodramatic Milgram","4.0.5","DullHologram2","left","right","NA","right","right","NA","left","515.2704170031939","2665.9713750123046","NA","3430.277917010244","1687.9761249874718","NA","515.2704170031939","NA","NA","2","fake_20","1024","2","48000","-16","experiment","9","odd","32547.54133298411","NA","8750.971499976004","48240.99491699599","NA","16557.85729197669","6871.244666981511","157818.39745797333","NA","NA","158322.51416699728","54630.18245797139","6904.0517499961425","NA","NA","NA","NA","NA","NA","NA","NA","NA","36868.619249988114","NA","158322.63295797748","58061.6015829728","157813.72849998297","NA","54619.55466697691","NA","36867.807291971985","158839.14804199594","NA","32546.39924998628","NA","NA","New experiment","35","67980.3828340664","54","1024"
"64","NA","64","1258","1258","#3d3846","psycho","NA","1","undefined","undefined","1","left","0","0","0","0","0","0","0","53","NA","0","53","0","0","NA","NA","NA","0","NA","NA","NA","NA","NA","0","NA","53","0","53","0","0","0","0","53","0","0","0","NA","Fri Oct 27 22:47:46 2023","20","The main experiment item","yes","CogPsy_Assignment_With_Instruction.osexp","/Users/andrasjoos/Documents/AI Masters/Period 1/Cognitive Psychology/Research project","no","mono","no","18","no","white","no","face on the left, holoraphic line, color of the number","yes","768","/Users/andrasjoos/Documents/AI Masters/Period 1/Cognitive Psychology/Research project/results/subject-9.csv","fake","Melodramatic Milgram","4.0.5","DullHologram2","face on the left, holoraphic line, color of the number","right","NA","right","right","NA","left","515.2704170031939","2665.9713750123046","NA","3430.277917010244","1687.9761249874718","NA","515.2704170031939","NA","NA","2","fake_20","1024","2","48000","-16","experiment","9","odd","32547.54133298411","NA","8750.971499976004","48240.99491699599","NA","16557.85729197669","6871.244666981511","157818.39745797333","NA","NA","158322.51416699728","54630.18245797139","6904.0517499961425","NA","NA","NA","193468.31020797254","NA","NA","NA","NA","NA","36868.619249988114","NA","158322.63295797748","58061.6015829728","157813.72849998297","NA","54619.55466697691","158879.98566697934","36867.807291971985","158839.14804199594","NA","32546.39924998628","NA","NA","New experiment","35","67980.3828340664","54","1024"
"64","NA","64","1258","1258","#3d3846","psycho","NA","1","undefined","undefined","1","left","0","0","0","0","0","0","0","53","NA","0","53","0","0","NA","NA","NA","0","NA","NA","NA","NA","NA","0","NA","53","0","53","0","0","0","0","53","0","0","0","NA","Fri Oct 27 22:47:46 2023","20","The main experiment item","yes","CogPsy_Assignment_With_Instruction.osexp","/Users/andrasjoos/Documents/AI Masters/Period 1/Cognitive Psychology/Research project","no","mono","no","18","no","white","no","Ok","yes","768","/Users/andrasjoos/Documents/AI Masters/Period 1/Cognitive Psychology/Research project/results/subject-9.csv","fake","Melodramatic Milgram","4.0.5","DullHologram2","Silver strip (security thread);UV hologram;Colors of text","right","NA","right","right","NA","left","515.2704170031939","2665.9713750123046","NA","3430.277917010244","1687.9761249874718","NA","515.2704170031939","NA","NA","2","fake_20","1024","2","48000","-16","experiment","9","odd","32547.54133298411","NA","8750.971499976004","48240.99491699599","NA","16557.85729197669","6871.244666981511","157818.39745797333","NA","NA","158322.51416699728","54630.18245797139","6904.0517499961425","NA","NA","NA","193468.31020797254","NA","NA","NA","NA","NA","36868.619249988114","NA","158322.63295797748","58061.6015829728","157813.72849998297","NA","54619.55466697691","158879.98566697934","36867.807291971985","158839.14804199594","NA","32546.39924998628","205291.29733299487","NA","New experiment","35","67980.3828340664","54","1024"
