"acc","accept_status","accuracy","average_response_time","avg_rt","background","canvas_backend","checkbox_status","correct","correct_consent_sketchpad","correct_instruction_sketchpad","correct_new_keyboard_response","correct_response","count_age_form","count_checkbox_security_form","count_consent_sketchpad","count_country_logger","count_eurozone_form","count_eurozone_logger","count_experiment","count_fixation_dots","count_getting_started","count_goodbye_sketchpad","count_images_sketchpad","count_information_display_sketchpad","count_instruction_sketchpad","count_new_1_form_base","count_new_1_form_text_input","count_new_1_sketchpad","count_new_2_logger","count_new_4_form_multiple_choice","count_new_form_base","count_new_form_consent","count_new_form_multiple_choice","count_new_form_text_display","count_new_form_text_input","count_new_inline_script","count_new_keyboard_response","count_new_loop","count_new_sequence","count_occupation_form","count_occupation_logger","count_open_security_input_form","count_personal_data_logger","count_response_logger","count_schooling_level_form","count_schooling_logger","count_security_feature_logger","count_welcome","datetime","denomination","description","disable_garbage_collection","experiment_file","experiment_path","font_bold","font_family","font_italic","font_size","font_underline","foreground","form_clicks","form_response","fullscreen","height","logfile","note_type","opensesame_codename","opensesame_version","reason","response","response_consent_sketchpad","response_goodbye_sketchpad","response_information_display_sketchpad","response_instruction_sketchpad","response_new_1_sketchpad","response_new_keyboard_response","response_time","response_time_consent_sketchpad","response_time_goodbye_sketchpad","response_time_information_display_sketchpad","response_time_instruction_sketchpad","response_time_new_1_sketchpad","response_time_new_keyboard_response","response_time_welcome","response_welcome","round_decimals","show","sound_buf_size","sound_channels","sound_freq","sound_sample_size","start","subject_nr","subject_parity","time_age_form","time_checkbox_security_form","time_consent_sketchpad","time_country_logger","time_eurozone_form","time_eurozone_logger","time_experiment","time_fixation_dots","time_getting_started","time_goodbye_sketchpad","time_images_sketchpad","time_information_display_sketchpad","time_instruction_sketchpad","time_new_1_form_base","time_new_1_form_text_input","time_new_1_sketchpad","time_new_2_logger","time_new_4_form_multiple_choice","time_new_form_base","time_new_form_consent","time_new_form_multiple_choice","time_new_form_text_display","time_new_form_text_input","time_new_inline_script","time_new_keyboard_response","time_new_loop","time_new_sequence","time_occupation_form","time_occupation_logger","time_open_security_input_form","time_personal_data_logger","time_response_logger","time_schooling_level_form","time_schooling_logger","time_security_feature_logger","time_welcome","title","total_correct","total_response_time","total_responses","width"
"undefined","NA","undefined","undefined","undefined","#3d3846","psycho","NA","undefined","undefined","undefined","NA","NA","0","0","0","0","0","0","0","NA","NA","0","NA","NA","0","NA","NA","NA","0","NA","NA","NA","NA","NA","0","NA","NA","0","NA","0","0","0","0","NA","0","0","0","NA","Fri Oct 27 17:36:52 2023","NA","The main experiment item","yes","CogPsy_Assignment_With_Instruction.osexp","C:/Users/joaquincr/Desktop","no","mono","no","18","no","white","no","Yes","yes","768","C:/Users/joaquincr/Desktop/subject-55.csv","NA","Melodramatic Milgram","4.0.5","NA","Yes","right","NA","NA","right","NA","NA","5385.8043000800535","5385.8043000800535","NA","NA","19238.67979994975","NA","NA","NA","NA","2","NA","1024","2","48000","-16","experiment","55","odd","NA","NA","73414.16970000137","NA","NA","82412.2892000014","54052.00800008606","NA","NA","NA","NA","NA","54166.872700094245","NA","NA","NA","NA","NA","NA","NA","NA","NA","NA","NA","NA","NA","NA","NA","NA","NA","NA","NA","NA","NA","NA","NA","New experiment","0","0","0","1024"
"undefined","NA","undefined","undefined","undefined","#3d3846","psycho","NA","undefined","undefined","undefined","NA","NA","0","0","0","0","0","0","0","NA","NA","0","NA","NA","0","NA","NA","NA","0","NA","NA","NA","NA","NA","0","NA","NA","0","NA","0","0","0","0","NA","0","0","0","NA","Fri Oct 27 17:36:52 2023","NA","The main experiment item","yes","CogPsy_Assignment_With_Instruction.osexp","C:/Users/joaquincr/Desktop","no","mono","no","18","no","white","no","PhD","yes","768","C:/Users/joaquincr/Desktop/subject-55.csv","NA","Melodramatic Milgram","4.0.5","NA","PhD","right","NA","NA","right","NA","NA","5385.8043000800535","5385.8043000800535","NA","NA","19238.67979994975","NA","NA","NA","NA","2","NA","1024","2","48000","-16","experiment","55","odd","NA","NA","73414.16970000137","NA","NA","82412.2892000014","54052.00800008606","NA","NA","NA","NA","NA","54166.872700094245","NA","NA","NA","NA","NA","NA","NA","NA","NA","NA","NA","NA","NA","NA","NA","NA","NA","NA","NA","NA","85517.06370001193","NA","NA","New experiment","0","0","0","1024"
"undefined","NA","undefined","undefined","undefined","#3d3846","psycho","NA","undefined","undefined","undefined","NA","NA","0","0","0","0","0","0","0","NA","NA","0","NA","NA","0","NA","NA","NA","0","NA","NA","NA","NA","NA","0","NA","NA","0","NA","0","0","0","0","NA","0","0","0","NA","Fri Oct 27 17:36:52 2023","NA","The main experiment item","yes","CogPsy_Assignment_With_Instruction.osexp","C:/Users/joaquincr/Desktop","no","mono","no","18","no","white","no","36","yes","768","C:/Users/joaquincr/Desktop/subject-55.csv","NA","Melodramatic Milgram","4.0.5","NA","36","right","NA","NA","right","NA","NA","5385.8043000800535","5385.8043000800535","NA","NA","19238.67979994975","NA","NA","NA","NA","2","NA","1024","2","48000","-16","experiment","55","odd","85528.9215000812","NA","73414.16970000137","NA","NA","82412.2892000014","54052.00800008606","NA","NA","NA","NA","NA","54166.872700094245","NA","NA","NA","NA","NA","NA","NA","NA","NA","NA","NA","NA","NA","NA","NA","NA","NA","95843.2072000578","NA","NA","85517.06370001193","NA","NA","New experiment","0","0","0","1024"
"undefined","NA","undefined","undefined","undefined","#3d3846","psycho","NA","undefined","undefined","undefined","NA","NA","0","0","0","0","0","0","0","NA","NA","0","NA","NA","0","NA","NA","NA","0","NA","NA","NA","NA","NA","0","NA","NA","0","NA","0","0","0","0","NA","0","0","0","NA","Fri Oct 27 17:36:52 2023","NA","The main experiment item","yes","CogPsy_Assignment_With_Instruction.osexp","C:/Users/joaquincr/Desktop","no","mono","no","18","no","white","no","German","yes","768","C:/Users/joaquincr/Desktop/subject-55.csv","NA","Melodramatic Milgram","4.0.5","NA","German","right","NA","NA","right","NA","NA","5385.8043000800535","5385.8043000800535","NA","NA","19238.67979994975","NA","NA","NA","NA","2","NA","1024","2","48000","-16","experiment","55","odd","85528.9215000812","NA","73414.16970000137","99865.51690008491","NA","82412.2892000014","54052.00800008606","NA","NA","NA","NA","NA","54166.872700094245","NA","NA","NA","NA","NA","NA","NA","NA","NA","95849.99220003374","NA","NA","NA","NA","NA","NA","NA","95843.2072000578","NA","NA","85517.06370001193","NA","NA","New experiment","0","0","0","1024"
"undefined","NA","undefined","undefined","undefined","#3d3846","psycho","NA","undefined","undefined","undefined","NA","NA","0","0","0","0","0","0","0","NA","NA","0","NA","NA","0","NA","NA","NA","0","NA","NA","NA","NA","NA","0","NA","NA","0","NA","0","0","0","0","NA","0","0","0","NA","Fri Oct 27 17:36:52 2023","NA","The main experiment item","yes","CogPsy_Assignment_With_Instruction.osexp","C:/Users/joaquincr/Desktop","no","mono","no","18","no","white","no","Professional and Technical Occupations","yes","768","C:/Users/joaquincr/Desktop/subject-55.csv","NA","Melodramatic Milgram","4.0.5","NA","Professional and Technical Occupations","right","NA","NA","right","NA","NA","5385.8043000800535","5385.8043000800535","NA","NA","19238.67979994975","NA","NA","NA","NA","2","NA","1024","2","48000","-16","experiment","55","odd","85528.9215000812","NA","73414.16970000137","99865.51690008491","NA","82412.2892000014","54052.00800008606","NA","NA","NA","NA","NA","54166.872700094245","NA","NA","NA","NA","NA","NA","NA","NA","NA","95849.99220003374","NA","NA","NA","NA","NA","104983.4578000009","NA","95843.2072000578","NA","NA","85517.06370001193","NA","NA","New experiment","0","0","0","1024"
"100","NA","100","2922","2922","#3d3846","psycho","NA","1","undefined","undefined","1","right","0","0","0","0","0","0","0","0","NA","0","0","NA","0","NA","NA","NA","0","NA","NA","NA","NA","NA","0","NA","0","0","0","0","0","0","0","0","0","0","0","NA","Fri Oct 27 17:36:52 2023","50","The main experiment item","yes","CogPsy_Assignment_With_Instruction.osexp","C:/Users/joaquincr/Desktop","no","mono","no","18","no","white","no","Professional and Technical Occupations","yes","768","C:/Users/joaquincr/Desktop/subject-55.csv","real","Melodramatic Milgram","4.0.5","genuine","right","right","NA","NA","right","NA","right","2922.0926000270993","5385.8043000800535","NA","NA","19238.67979994975","NA","2922.0926000270993","NA","NA","2","real_50","1024","2","48000","-16","experiment","55","odd","85528.9215000812","NA","73414.16970000137","99865.51690008491","NA","82412.2892000014","54052.00800008606","105186.67220009957","NA","NA","105693.69159999769","NA","54166.872700094245","NA","NA","NA","NA","NA","NA","NA","NA","NA","95849.99220003374","NA","105694.06640005764","104987.98820003867","105174.72200002521","NA","104983.4578000009","NA","95843.2072000578","108617.05310002435","NA","85517.06370001193","NA","NA","New experiment","1","2922.0926000270993","1","1024"
"100","NA","100","2326","2326","#3d3846","psycho","NA","1","undefined","undefined","1","left","0","0","0","0","0","0","0","1","NA","0","1","NA","0","NA","NA","NA","0","NA","NA","NA","NA","NA","0","NA","1","0","1","0","0","0","0","1","0","0","0","NA","Fri Oct 27 17:36:52 2023","50","The main experiment item","yes","CogPsy_Assignment_With_Instruction.osexp","C:/Users/joaquincr/Desktop","no","mono","no","18","no","white","no","Professional and Technical Occupations","yes","768","C:/Users/joaquincr/Desktop/subject-55.csv","fake","Melodramatic Milgram","4.0.5","PurpleDenomination3","left","right","NA","NA","right","NA","left","1731.6295999335125","5385.8043000800535","NA","NA","19238.67979994975","NA","1731.6295999335125","NA","NA","2","fake_2_50","1024","2","48000","-16","experiment","55","odd","85528.9215000812","NA","73414.16970000137","99865.51690008491","NA","82412.2892000014","54052.00800008606","109199.1559000453","NA","NA","109705.59490006417","NA","54166.872700094245","NA","NA","NA","NA","NA","NA","NA","NA","NA","95849.99220003374","NA","109705.78030007891","104987.98820003867","109189.60230005905","NA","104983.4578000009","NA","95843.2072000578","111438.11290001031","NA","85517.06370001193","NA","NA","New experiment","2","4653.722199960612","2","1024"
"100","NA","100","2272","2272","#3d3846","psycho","NA","1","undefined","undefined","1","left","0","0","0","0","0","0","0","2","NA","0","2","NA","0","NA","NA","NA","0","NA","NA","NA","NA","NA","0","NA","2","0","2","0","0","0","0","2","0","0","0","NA","Fri Oct 27 17:36:52 2023","50","The main experiment item","yes","CogPsy_Assignment_With_Instruction.osexp","C:/Users/joaquincr/Desktop","no","mono","no","18","no","white","no","Professional and Technical Occupations","yes","768","C:/Users/joaquincr/Desktop/subject-55.csv","fake","Melodramatic Milgram","4.0.5","bottom_left","left","right","NA","NA","right","NA","left","2162.3265999369323","5385.8043000800535","NA","NA","19238.67979994975","NA","2162.3265999369323","NA","NA","2","fake_1_50","1024","2","48000","-16","experiment","55","odd","85528.9215000812","NA","73414.16970000137","99865.51690008491","NA","82412.2892000014","54052.00800008606","111650.02739999909","NA","NA","112156.96749999188","NA","54166.872700094245","NA","NA","NA","NA","NA","NA","NA","NA","NA","95849.99220003374","NA","112157.17480005696","104987.98820003867","111641.14640001208","NA","104983.4578000009","NA","95843.2072000578","114320.8869000664","NA","85517.06370001193","NA","NA","New experiment","3","6816.048799897544","3","1024"
"100","NA","100","1970","1970","#3d3846","psycho","NA","1","undefined","undefined","1","left","0","0","0","0","0","0","0","3","NA","0","3","NA","0","NA","NA","NA","0","NA","NA","NA","NA","NA","0","NA","3","0","3","0","0","0","0","3","0","0","0","NA","Fri Oct 27 17:36:52 2023","50","The main experiment item","yes","CogPsy_Assignment_With_Instruction.osexp","C:/Users/joaquincr/Desktop","no","mono","no","18","no","white","no","Professional and Technical Occupations","yes","768","C:/Users/joaquincr/Desktop/subject-55.csv","fake","Melodramatic Milgram","4.0.5","NoNumOnThread_BlurryWatermark","left","right","NA","NA","right","NA","left","1065.7941999379545","5385.8043000800535","NA","NA","19238.67979994975","NA","1065.7941999379545","NA","NA","2","fake_2_50","1024","2","48000","-16","experiment","55","odd","85528.9215000812","NA","73414.16970000137","99865.51690008491","NA","82412.2892000014","54052.00800008606","114611.7364000529","NA","NA","115118.2095000986","NA","54166.872700094245","NA","NA","NA","NA","NA","NA","NA","NA","NA","95849.99220003374","NA","115118.40850010049","104987.98820003867","114602.85810008645","NA","104983.4578000009","NA","95843.2072000578","116185.14060007874","NA","85517.06370001193","NA","NA","New experiment","4","7881.842999835499","4","1024"
"80","NA","80","1806","1806","#3d3846","psycho","NA","0","undefined","undefined","0","left","0","0","0","0","0","0","0","4","NA","0","4","NA","0","NA","NA","NA","0","NA","NA","NA","NA","NA","0","NA","4","0","4","0","0","0","0","4","0","0","0","NA","Fri Oct 27 17:36:52 2023","20","The main experiment item","yes","CogPsy_Assignment_With_Instruction.osexp","C:/Users/joaquincr/Desktop","no","mono","no","18","no","white","no","Professional and Technical Occupations","yes","768","C:/Users/joaquincr/Desktop/subject-55.csv","fake","Melodramatic Milgram","4.0.5","BrownDenomination","right","right","NA","NA","right","NA","right","1148.1885999673977","5385.8043000800535","NA","NA","19238.67979994975","NA","1148.1885999673977","NA","NA","2","fake_20","1024","2","48000","-16","experiment","55","odd","85528.9215000812","NA","73414.16970000137","99865.51690008491","NA","82412.2892000014","54052.00800008606","116481.72780009918","NA","NA","116987.88250004873","NA","54166.872700094245","NA","NA","NA","NA","NA","NA","NA","NA","NA","95849.99220003374","NA","116988.12530003488","104987.98820003867","116471.2048000656","NA","104983.4578000009","NA","95843.2072000578","118137.28520006407","NA","85517.06370001193","NA","NA","New experiment","4","9030.031599802896","5","1024"
"66","NA","66","1786","1786","#3d3846","psycho","NA","0","undefined","undefined","0","left","0","0","0","0","0","0","0","5","NA","0","5","NA","0","NA","NA","NA","0","NA","NA","NA","NA","NA","0","NA","5","0","5","0","0","0","0","5","0","0","0","NA","Fri Oct 27 17:36:52 2023","50","The main experiment item","yes","CogPsy_Assignment_With_Instruction.osexp","C:/Users/joaquincr/Desktop","no","mono","no","18","no","white","no","Professional and Technical Occupations","yes","768","C:/Users/joaquincr/Desktop/subject-55.csv","fake","Melodramatic Milgram","4.0.5","PurpleDenomination","right","right","NA","NA","right","NA","right","1688.3256000000983","5385.8043000800535","NA","NA","19238.67979994975","NA","1688.3256000000983","NA","NA","2","fake_2_50","1024","2","48000","-16","experiment","55","odd","85528.9215000812","NA","73414.16970000137","99865.51690008491","NA","82412.2892000014","54052.00800008606","118443.85490007699","NA","NA","118949.49540006928","NA","54166.872700094245","NA","NA","NA","NA","NA","NA","NA","NA","NA","95849.99220003374","NA","118949.69860010315","104987.98820003867","118435.68110000342","NA","104983.4578000009","NA","95843.2072000578","120639.04280005954","NA","85517.06370001193","NA","NA","New experiment","4","10718.357199802995","6","1024"
"71","NA","71","1651","1651","#3d3846","psycho","NA","1","undefined","undefined","1","right","0","0","0","0","0","0","0","6","NA","0","6","NA","0","NA","NA","NA","0","NA","NA","NA","NA","NA","0","NA","6","0","6","0","0","0","0","6","0","0","0","NA","Fri Oct 27 17:36:52 2023","20","The main experiment item","yes","CogPsy_Assignment_With_Instruction.osexp","C:/Users/joaquincr/Desktop","no","mono","no","18","no","white","no","Professional and Technical Occupations","yes","768","C:/Users/joaquincr/Desktop/subject-55.csv","real","Melodramatic Milgram","4.0.5","genuine","right","right","NA","NA","right","NA","right","842.7524999715388","5385.8043000800535","NA","NA","19238.67979994975","NA","842.7524999715388","NA","NA","2","real_20","1024","2","48000","-16","experiment","55","odd","85528.9215000812","NA","73414.16970000137","99865.51690008491","NA","82412.2892000014","54052.00800008606","120882.78840004932","NA","NA","121388.85580003262","NA","54166.872700094245","NA","NA","NA","NA","NA","NA","NA","NA","NA","95849.99220003374","NA","121389.07730008941","104987.98820003867","120872.98049998935","NA","104983.4578000009","NA","95843.2072000578","122232.56530007347","NA","85517.06370001193","NA","NA","New experiment","5","11561.109699774534","7","1024"
"62","NA","62","1641","1641","#3d3846","psycho","NA","0","undefined","undefined","0","left","0","0","0","0","0","0","0","7","NA","0","7","NA","0","NA","NA","NA","0","NA","NA","NA","NA","NA","0","NA","7","0","7","0","0","0","0","7","0","0","0","NA","Fri Oct 27 17:36:52 2023","20","The main experiment item","yes","CogPsy_Assignment_With_Instruction.osexp","C:/Users/joaquincr/Desktop","no","mono","no","18","no","white","no","Professional and Technical Occupations","yes","768","C:/Users/joaquincr/Desktop/subject-55.csv","fake","Melodramatic Milgram","4.0.5","silver_strip","right","right","NA","NA","right","NA","right","1572.9876999976113","5385.8043000800535","NA","NA","19238.67979994975","NA","1572.9876999976113","NA","NA","2","fake_2_20","1024","2","48000","-16","experiment","55","odd","85528.9215000812","NA","73414.16970000137","99865.51690008491","NA","82412.2892000014","54052.00800008606","122530.67970008124","NA","NA","123037.45270008221","NA","54166.872700094245","NA","NA","NA","NA","NA","NA","NA","NA","NA","95849.99220003374","NA","123037.656600005","104987.98820003867","122520.2650000574","NA","104983.4578000009","NA","95843.2072000578","124611.2632000586","NA","85517.06370001193","NA","NA","New experiment","5","13134.097399772145","8","1024"
"66","NA","66","1633","1633","#3d3846","psycho","NA","1","undefined","undefined","1","left","0","0","0","0","0","0","0","8","NA","0","8","NA","0","NA","NA","NA","0","NA","NA","NA","NA","NA","0","NA","8","0","8","0","0","0","0","8","0","0","0","NA","Fri Oct 27 17:36:52 2023","20","The main experiment item","yes","CogPsy_Assignment_With_Instruction.osexp","C:/Users/joaquincr/Desktop","no","mono","no","18","no","white","no","Professional and Technical Occupations","yes","768","C:/Users/joaquincr/Desktop/subject-55.csv","fake","Melodramatic Milgram","4.0.5","DullHologram2","left","right","NA","NA","right","NA","left","1570.9089000010863","5385.8043000800535","NA","NA","19238.67979994975","NA","1570.9089000010863","NA","NA","2","fake_20","1024","2","48000","-16","experiment","55","odd","85528.9215000812","NA","73414.16970000137","99865.51690008491","NA","82412.2892000014","54052.00800008606","124908.58869999647","NA","NA","125415.63530010171","NA","54166.872700094245","NA","NA","NA","NA","NA","NA","NA","NA","NA","95849.99220003374","NA","125415.94050009735","104987.98820003867","124899.6178000234","NA","104983.4578000009","NA","95843.2072000578","126987.92710003909","NA","85517.06370001193","NA","NA","New experiment","6","14705.006299773231","9","1024"
"70","NA","70","1591","1591","#3d3846","psycho","NA","1","undefined","undefined","1","left","0","0","0","0","0","0","0","9","NA","0","9","NA","0","NA","NA","NA","0","NA","NA","NA","NA","NA","0","NA","9","0","9","0","0","0","0","9","0","0","0","NA","Fri Oct 27 17:36:52 2023","20","The main experiment item","yes","CogPsy_Assignment_With_Instruction.osexp","C:/Users/joaquincr/Desktop","no","mono","no","18","no","white","no","Professional and Technical Occupations","yes","768","C:/Users/joaquincr/Desktop/subject-55.csv","fake","Melodramatic Milgram","4.0.5","bottom_left","left","right","NA","NA","right","NA","left","1213.7222000164911","5385.8043000800535","NA","NA","19238.67979994975","NA","1213.7222000164911","NA","NA","2","fake_1_20","1024","2","48000","-16","experiment","55","odd","85528.9215000812","NA","73414.16970000137","99865.51690008491","NA","82412.2892000014","54052.00800008606","127236.32960009854","NA","NA","127743.45100007486","NA","54166.872700094245","NA","NA","NA","NA","NA","NA","NA","NA","NA","95849.99220003374","NA","127743.68770001456","104987.98820003867","127227.93769999407","NA","104983.4578000009","NA","95843.2072000578","128958.25190003961","NA","85517.06370001193","NA","NA","New experiment","7","15918.728499789722","10","1024"
"63","NA","63","1537","1537","#3d3846","psycho","NA","0","undefined","undefined","0","right","0","0","0","0","0","0","0","10","NA","0","10","NA","0","NA","NA","NA","0","NA","NA","NA","NA","NA","0","NA","10","0","10","0","0","0","0","10","0","0","0","NA","Fri Oct 27 17:36:52 2023","50","The main experiment item","yes","CogPsy_Assignment_With_Instruction.osexp","C:/Users/joaquincr/Desktop","no","mono","no","18","no","white","no","Professional and Technical Occupations","yes","768","C:/Users/joaquincr/Desktop/subject-55.csv","real","Melodramatic Milgram","4.0.5","photo_2","left","right","NA","NA","right","NA","left","994.862100109458","5385.8043000800535","NA","NA","19238.67979994975","NA","994.862100109458","NA","NA","2","real_50","1024","2","48000","-16","experiment","55","odd","85528.9215000812","NA","73414.16970000137","99865.51690008491","NA","82412.2892000014","54052.00800008606","129197.18890008517","NA","NA","129707.38000003621","NA","54166.872700094245","NA","NA","NA","NA","NA","NA","NA","NA","NA","95849.99220003374","NA","129707.58819999173","104987.98820003867","129185.88340003043","NA","104983.4578000009","NA","95843.2072000578","130703.6580001004","NA","85517.06370001193","NA","NA","New experiment","7","16913.59059989918","11","1024"
"66","NA","66","1493","1493","#3d3846","psycho","NA","1","undefined","undefined","1","right","0","0","0","0","0","0","0","11","NA","0","11","NA","0","NA","NA","NA","0","NA","NA","NA","NA","NA","0","NA","11","0","11","0","0","0","0","11","0","0","0","NA","Fri Oct 27 17:36:52 2023","20","The main experiment item","yes","CogPsy_Assignment_With_Instruction.osexp","C:/Users/joaquincr/Desktop","no","mono","no","18","no","white","no","Professional and Technical Occupations","yes","768","C:/Users/joaquincr/Desktop/subject-55.csv","real","Melodramatic Milgram","4.0.5","genuine","right","right","NA","NA","right","NA","right","1009.5623000524938","5385.8043000800535","NA","NA","19238.67979994975","NA","1009.5623000524938","NA","NA","2","real_20","1024","2","48000","-16","experiment","55","odd","85528.9215000812","NA","73414.16970000137","99865.51690008491","NA","82412.2892000014","54052.00800008606","130923.2535000192","NA","NA","131430.98500010092","NA","54166.872700094245","NA","NA","NA","NA","NA","NA","NA","NA","NA","95849.99220003374","NA","131431.23069999274","104987.98820003867","130913.92580000684","NA","104983.4578000009","NA","95843.2072000578","132441.47110008635","NA","85517.06370001193","NA","NA","New experiment","8","17923.152899951674","12","1024"
"61","NA","61","1455","1455","#3d3846","psycho","NA","0","undefined","undefined","0","right","0","0","0","0","0","0","0","12","NA","0","12","NA","0","NA","NA","NA","0","NA","NA","NA","NA","NA","0","NA","12","0","12","0","0","0","0","12","0","0","0","NA","Fri Oct 27 17:36:52 2023","20","The main experiment item","yes","CogPsy_Assignment_With_Instruction.osexp","C:/Users/joaquincr/Desktop","no","mono","no","18","no","white","no","Professional and Technical Occupations","yes","768","C:/Users/joaquincr/Desktop/subject-55.csv","real","Melodramatic Milgram","4.0.5","photo","left","right","NA","NA","right","NA","left","994.2690000170842","5385.8043000800535","NA","NA","19238.67979994975","NA","994.2690000170842","NA","NA","2","real_20","1024","2","48000","-16","experiment","55","odd","85528.9215000812","NA","73414.16970000137","99865.51690008491","NA","82412.2892000014","54052.00800008606","132734.8813000135","NA","NA","133241.58800009172","NA","54166.872700094245","NA","NA","NA","NA","NA","NA","NA","NA","NA","95849.99220003374","NA","133241.80990003515","104987.98820003867","132726.52620007284","NA","104983.4578000009","NA","95843.2072000578","134236.6474000737","NA","85517.06370001193","NA","NA","New experiment","8","18917.42189996876","13","1024"
"57","NA","57","1477","1477","#3d3846","psycho","NA","0","undefined","undefined","0","left","0","0","0","0","0","0","0","13","NA","0","13","NA","0","NA","NA","NA","0","NA","NA","NA","NA","NA","0","NA","13","0","13","0","0","0","0","13","0","0","0","NA","Fri Oct 27 17:36:52 2023","50","The main experiment item","yes","CogPsy_Assignment_With_Instruction.osexp","C:/Users/joaquincr/Desktop","no","mono","no","18","no","white","no","Professional and Technical Occupations","yes","768","C:/Users/joaquincr/Desktop/subject-55.csv","fake","Melodramatic Milgram","4.0.5","bottom_left","right","right","NA","NA","right","NA","right","1773.923399974592","5385.8043000800535","NA","NA","19238.67979994975","NA","1773.923399974592","NA","NA","2","fake_1_50","1024","2","48000","-16","experiment","55","odd","85528.9215000812","NA","73414.16970000137","99865.51690008491","NA","82412.2892000014","54052.00800008606","134397.96390000265","NA","NA","134903.30940007698","NA","54166.872700094245","NA","NA","NA","NA","NA","NA","NA","NA","NA","95849.99220003374","NA","134903.55130005628","104987.98820003867","134389.73250007257","NA","104983.4578000009","NA","95843.2072000578","136678.11400000937","NA","85517.06370001193","NA","NA","New experiment","8","20691.34529994335","14","1024"
"53","NA","53","1436","1436","#3d3846","psycho","NA","0","undefined","undefined","0","left","0","0","0","0","0","0","0","14","NA","0","14","NA","0","NA","NA","NA","0","NA","NA","NA","NA","NA","0","NA","14","0","14","0","0","0","0","14","0","0","0","NA","Fri Oct 27 17:36:52 2023","20","The main experiment item","yes","CogPsy_Assignment_With_Instruction.osexp","C:/Users/joaquincr/Desktop","no","mono","no","18","no","white","no","Professional and Technical Occupations","yes","768","C:/Users/joaquincr/Desktop/subject-55.csv","fake","Melodramatic Milgram","4.0.5","BrownDenomination","right","right","NA","NA","right","NA","right","852.5900000240654","5385.8043000800535","NA","NA","19238.67979994975","NA","852.5900000240654","NA","NA","2","fake_20","1024","2","48000","-16","experiment","55","odd","85528.9215000812","NA","73414.16970000137","99865.51690008491","NA","82412.2892000014","54052.00800008606","136876.74920004793","NA","NA","137381.99930009432","NA","54166.872700094245","NA","NA","NA","NA","NA","NA","NA","NA","NA","95849.99220003374","NA","137382.1349000791","104987.98820003867","136869.40030008554","NA","104983.4578000009","NA","95843.2072000578","138235.5910000624","NA","85517.06370001193","NA","NA","New experiment","8","21543.935299967416","15","1024"
"50","NA","50","1427","1427","#3d3846","psycho","NA","0","undefined","undefined","0","right","0","0","0","0","0","0","0","15","NA","0","15","NA","0","NA","NA","NA","0","NA","NA","NA","NA","NA","0","NA","15","0","15","0","0","0","0","15","0","0","0","NA","Fri Oct 27 17:36:52 2023","50","The main experiment item","yes","CogPsy_Assignment_With_Instruction.osexp","C:/Users/joaquincr/Desktop","no","mono","no","18","no","white","no","Professional and Technical Occupations","yes","768","C:/Users/joaquincr/Desktop/subject-55.csv","real","Melodramatic Milgram","4.0.5","genuine","left","right","NA","NA","right","NA","left","1297.4741999059916","5385.8043000800535","NA","NA","19238.67979994975","NA","1297.4741999059916","NA","NA","2","real_50","1024","2","48000","-16","experiment","55","odd","85528.9215000812","NA","73414.16970000137","99865.51690008491","NA","82412.2892000014","54052.00800008606","138416.92670003977","NA","NA","138922.58610005956","NA","54166.872700094245","NA","NA","NA","NA","NA","NA","NA","NA","NA","95849.99220003374","NA","138922.72760008927","104987.98820003867","138406.63400001358","NA","104983.4578000009","NA","95843.2072000578","140221.01530001964","NA","85517.06370001193","NA","NA","New experiment","8","22841.409499873407","16","1024"
"47","NA","47","1390","1390","#3d3846","psycho","NA","0","undefined","undefined","0","right","0","0","0","0","0","0","0","16","NA","0","16","NA","0","NA","NA","NA","0","NA","NA","NA","NA","NA","0","NA","16","0","16","0","0","0","0","16","0","0","0","NA","Fri Oct 27 17:36:52 2023","20","The main experiment item","yes","CogPsy_Assignment_With_Instruction.osexp","C:/Users/joaquincr/Desktop","no","mono","no","18","no","white","no","Professional and Technical Occupations","yes","768","C:/Users/joaquincr/Desktop/subject-55.csv","real","Melodramatic Milgram","4.0.5","photo","left","right","NA","NA","right","NA","left","799.0825999295339","5385.8043000800535","NA","NA","19238.67979994975","NA","799.0825999295339","NA","NA","2","real_20","1024","2","48000","-16","experiment","55","odd","85528.9215000812","NA","73414.16970000137","99865.51690008491","NA","82412.2892000014","54052.00800008606","140501.3415000867","NA","NA","141007.2027000133","NA","54166.872700094245","NA","NA","NA","NA","NA","NA","NA","NA","NA","95849.99220003374","NA","141007.36510008574","104987.98820003867","140491.66300008073","NA","104983.4578000009","NA","95843.2072000578","141807.2660000762","NA","85517.06370001193","NA","NA","New experiment","8","23640.49209980294","17","1024"
"50","NA","50","1359","1359","#3d3846","psycho","NA","1","undefined","undefined","1","right","0","0","0","0","0","0","0","17","NA","0","17","NA","0","NA","NA","NA","0","NA","NA","NA","NA","NA","0","NA","17","0","17","0","0","0","0","17","0","0","0","NA","Fri Oct 27 17:36:52 2023","20","The main experiment item","yes","CogPsy_Assignment_With_Instruction.osexp","C:/Users/joaquincr/Desktop","no","mono","no","18","no","white","no","Professional and Technical Occupations","yes","768","C:/Users/joaquincr/Desktop/subject-55.csv","real","Melodramatic Milgram","4.0.5","genuine","right","right","NA","NA","right","NA","right","821.8092999886721","5385.8043000800535","NA","NA","19238.67979994975","NA","821.8092999886721","NA","NA","2","real_20","1024","2","48000","-16","experiment","55","odd","85528.9215000812","NA","73414.16970000137","99865.51690008491","NA","82412.2892000014","54052.00800008606","141996.6354999924","NA","NA","142519.40039999317","NA","54166.872700094245","NA","NA","NA","NA","NA","NA","NA","NA","NA","95849.99220003374","NA","142519.59600008558","104987.98820003867","141986.55250004958","NA","104983.4578000009","NA","95843.2072000578","143342.30810008012","NA","85517.06370001193","NA","NA","New experiment","9","24462.301399791613","18","1024"
"52","NA","52","1335","1335","#3d3846","psycho","NA","1","undefined","undefined","1","right","0","0","0","0","0","0","0","18","NA","0","18","NA","0","NA","NA","NA","0","NA","NA","NA","NA","NA","0","NA","18","0","18","0","0","0","0","18","0","0","0","NA","Fri Oct 27 17:36:52 2023","50","The main experiment item","yes","CogPsy_Assignment_With_Instruction.osexp","C:/Users/joaquincr/Desktop","no","mono","no","18","no","white","no","Professional and Technical Occupations","yes","768","C:/Users/joaquincr/Desktop/subject-55.csv","real","Melodramatic Milgram","4.0.5","photo","right","right","NA","NA","right","NA","right","916.9937999686226","5385.8043000800535","NA","NA","19238.67979994975","NA","916.9937999686226","NA","NA","2","real_50","1024","2","48000","-16","experiment","55","odd","85528.9215000812","NA","73414.16970000137","99865.51690008491","NA","82412.2892000014","54052.00800008606","143663.94280001987","NA","NA","144169.3884000415","NA","54166.872700094245","NA","NA","NA","NA","NA","NA","NA","NA","NA","95849.99220003374","NA","144169.55870005768","104987.98820003867","143653.73810008168","NA","104983.4578000009","NA","95843.2072000578","145087.45920006186","NA","85517.06370001193","NA","NA","New experiment","10","25379.295199760236","19","1024"
"50","NA","50","1342","1342","#3d3846","psycho","NA","0","undefined","undefined","0","left","0","0","0","0","0","0","0","19","NA","0","19","NA","0","NA","NA","NA","0","NA","NA","NA","NA","NA","0","NA","19","0","19","0","0","0","0","19","0","0","0","NA","Fri Oct 27 17:36:52 2023","50","The main experiment item","yes","CogPsy_Assignment_With_Instruction.osexp","C:/Users/joaquincr/Desktop","no","mono","no","18","no","white","no","Professional and Technical Occupations","yes","768","C:/Users/joaquincr/Desktop/subject-55.csv","fake","Melodramatic Milgram","4.0.5","GreyDenomination","right","right","NA","NA","right","NA","right","1469.6984000038356","5385.8043000800535","NA","NA","19238.67979994975","NA","1469.6984000038356","NA","NA","2","fake_2_50","1024","2","48000","-16","experiment","55","odd","85528.9215000812","NA","73414.16970000137","99865.51690008491","NA","82412.2892000014","54052.00800008606","145365.6502000522","NA","NA","145874.0241000196","NA","54166.872700094245","NA","NA","NA","NA","NA","NA","NA","NA","NA","95849.99220003374","NA","145874.25840005744","104987.98820003867","145356.4394999994","NA","104983.4578000009","NA","95843.2072000578","147345.10190004949","NA","85517.06370001193","NA","NA","New experiment","10","26848.99359976407","20","1024"
"52","NA","52","1356","1356","#3d3846","psycho","NA","1","undefined","undefined","1","right","0","0","0","0","0","0","0","20","NA","0","20","NA","0","NA","NA","NA","0","NA","NA","NA","NA","NA","0","NA","20","0","20","0","0","0","0","20","0","0","0","NA","Fri Oct 27 17:36:52 2023","20","The main experiment item","yes","CogPsy_Assignment_With_Instruction.osexp","C:/Users/joaquincr/Desktop","no","mono","no","18","no","white","no","Professional and Technical Occupations","yes","768","C:/Users/joaquincr/Desktop/subject-55.csv","real","Melodramatic Milgram","4.0.5","genuine","right","right","NA","NA","right","NA","right","1627.2815000265837","5385.8043000800535","NA","NA","19238.67979994975","NA","1627.2815000265837","NA","NA","2","real_20","1024","2","48000","-16","experiment","55","odd","85528.9215000812","NA","73414.16970000137","99865.51690008491","NA","82412.2892000014","54052.00800008606","147611.62500001956","NA","NA","148118.71150007937","NA","54166.872700094245","NA","NA","NA","NA","NA","NA","NA","NA","NA","95849.99220003374","NA","148118.9536000602","104987.98820003867","147601.55750007834","NA","104983.4578000009","NA","95843.2072000578","149747.06389999483","NA","85517.06370001193","NA","NA","New experiment","11","28476.275099790655","21","1024"
"54","NA","54","1323","1323","#3d3846","psycho","NA","1","undefined","undefined","1","left","0","0","0","0","0","0","0","21","NA","0","21","NA","0","NA","NA","NA","0","NA","NA","NA","NA","NA","0","NA","21","0","21","0","0","0","0","21","0","0","0","NA","Fri Oct 27 17:36:52 2023","20","The main experiment item","yes","CogPsy_Assignment_With_Instruction.osexp","C:/Users/joaquincr/Desktop","no","mono","no","18","no","white","no","Professional and Technical Occupations","yes","768","C:/Users/joaquincr/Desktop/subject-55.csv","fake","Melodramatic Milgram","4.0.5","NoNumOnThread_BlurryWatermark","left","right","NA","NA","right","NA","left","648.1423999648541","5385.8043000800535","NA","NA","19238.67979994975","NA","648.1423999648541","NA","NA","2","fake_20","1024","2","48000","-16","experiment","55","odd","85528.9215000812","NA","73414.16970000137","99865.51690008491","NA","82412.2892000014","54052.00800008606","150014.9148000637","NA","NA","150520.9438999882","NA","54166.872700094245","NA","NA","NA","NA","NA","NA","NA","NA","NA","95849.99220003374","NA","150521.15760010201","104987.98820003867","150005.8659000788","NA","104983.4578000009","NA","95843.2072000578","151170.1374000404","NA","85517.06370001193","NA","NA","New experiment","12","29124.41749975551","22","1024"
"52","NA","52","1294","1294","#3d3846","psycho","NA","0","undefined","undefined","0","right","0","0","0","0","0","0","0","22","NA","0","22","NA","0","NA","NA","NA","0","NA","NA","NA","NA","NA","0","NA","22","0","22","0","0","0","0","22","0","0","0","NA","Fri Oct 27 17:36:52 2023","20","The main experiment item","yes","CogPsy_Assignment_With_Instruction.osexp","C:/Users/joaquincr/Desktop","no","mono","no","18","no","white","no","Professional and Technical Occupations","yes","768","C:/Users/joaquincr/Desktop/subject-55.csv","real","Melodramatic Milgram","4.0.5","photo","left","right","NA","NA","right","NA","left","642.642299993895","5385.8043000800535","NA","NA","19238.67979994975","NA","642.642299993895","NA","NA","2","real_20","1024","2","48000","-16","experiment","55","odd","85528.9215000812","NA","73414.16970000137","99865.51690008491","NA","82412.2892000014","54052.00800008606","151441.75670004915","NA","NA","151947.59960006922","NA","54166.872700094245","NA","NA","NA","NA","NA","NA","NA","NA","NA","95849.99220003374","NA","151947.83060008194","104987.98820003867","151432.2939000558","NA","104983.4578000009","NA","95843.2072000578","152591.38560004067","NA","85517.06370001193","NA","NA","New experiment","12","29767.059799749404","23","1024"
"50","NA","50","1277","1277","#3d3846","psycho","NA","0","undefined","undefined","0","left","0","0","0","0","0","0","0","23","NA","0","23","NA","0","NA","NA","NA","0","NA","NA","NA","NA","NA","0","NA","23","0","23","0","0","0","0","23","0","0","0","NA","Fri Oct 27 17:36:52 2023","50","The main experiment item","yes","CogPsy_Assignment_With_Instruction.osexp","C:/Users/joaquincr/Desktop","no","mono","no","18","no","white","no","Professional and Technical Occupations","yes","768","C:/Users/joaquincr/Desktop/subject-55.csv","fake","Melodramatic Milgram","4.0.5","PurpleDenomination2","right","right","NA","NA","right","NA","right","898.4443000517786","5385.8043000800535","NA","NA","19238.67979994975","NA","898.4443000517786","NA","NA","2","fake_2_50","1024","2","48000","-16","experiment","55","odd","85528.9215000812","NA","73414.16970000137","99865.51690008491","NA","82412.2892000014","54052.00800008606","152841.71920001972","NA","NA","153348.85499998927","NA","54166.872700094245","NA","NA","NA","NA","NA","NA","NA","NA","NA","95849.99220003374","NA","153349.13480002433","104987.98820003867","152832.5681000715","NA","104983.4578000009","NA","95843.2072000578","154248.57530009467","NA","85517.06370001193","NA","NA","New experiment","12","30665.504099801183","24","1024"
"52","NA","52","1265","1265","#3d3846","psycho","NA","1","undefined","undefined","1","left","0","0","0","0","0","0","0","24","NA","0","24","NA","0","NA","NA","NA","0","NA","NA","NA","NA","NA","0","NA","24","0","24","0","0","0","0","24","0","0","0","NA","Fri Oct 27 17:36:52 2023","50","The main experiment item","yes","CogPsy_Assignment_With_Instruction.osexp","C:/Users/joaquincr/Desktop","no","mono","no","18","no","white","no","Professional and Technical Occupations","yes","768","C:/Users/joaquincr/Desktop/subject-55.csv","fake","Melodramatic Milgram","4.0.5","silver_strip","left","right","NA","NA","right","NA","left","977.872500079684","5385.8043000800535","NA","NA","19238.67979994975","NA","977.872500079684","NA","NA","2","fake_2_50","1024","2","48000","-16","experiment","55","odd","85528.9215000812","NA","73414.16970000137","99865.51690008491","NA","82412.2892000014","54052.00800008606","154484.38160005026","NA","NA","154989.5855000941","NA","54166.872700094245","NA","NA","NA","NA","NA","NA","NA","NA","NA","95849.99220003374","NA","154989.771499997","104987.98820003867","154472.88690006826","NA","104983.4578000009","NA","95843.2072000578","155968.54480006732","NA","85517.06370001193","NA","NA","New experiment","13","31643.376599880867","25","1024"
"53","NA","53","1267","1267","#3d3846","psycho","NA","1","undefined","undefined","1","right","0","0","0","0","0","0","0","25","NA","0","25","NA","0","NA","NA","NA","0","NA","NA","NA","NA","NA","0","NA","25","0","25","0","0","0","0","25","0","0","0","NA","Fri Oct 27 17:36:52 2023","50","The main experiment item","yes","CogPsy_Assignment_With_Instruction.osexp","C:/Users/joaquincr/Desktop","no","mono","no","18","no","white","no","Professional and Technical Occupations","yes","768","C:/Users/joaquincr/Desktop/subject-55.csv","real","Melodramatic Milgram","4.0.5","photo","right","right","NA","NA","right","NA","right","1302.8995000058785","5385.8043000800535","NA","NA","19238.67979994975","NA","1302.8995000058785","NA","NA","2","real_50","1024","2","48000","-16","experiment","55","odd","85528.9215000812","NA","73414.16970000137","99865.51690008491","NA","82412.2892000014","54052.00800008606","156199.56990005448","NA","NA","156706.491000019","NA","54166.872700094245","NA","NA","NA","NA","NA","NA","NA","NA","NA","95849.99220003374","NA","156706.7531000357","104987.98820003867","156190.5796000501","NA","104983.4578000009","NA","95843.2072000578","158010.58780006133","NA","85517.06370001193","NA","NA","New experiment","14","32946.276099886745","26","1024"
"55","NA","55","1293","1293","#3d3846","psycho","NA","1","undefined","undefined","1","left","0","0","0","0","0","0","0","26","NA","0","26","NA","0","NA","NA","NA","0","NA","NA","NA","NA","NA","0","NA","26","0","26","0","0","0","0","26","0","0","0","NA","Fri Oct 27 17:36:52 2023","50","The main experiment item","yes","CogPsy_Assignment_With_Instruction.osexp","C:/Users/joaquincr/Desktop","no","mono","no","18","no","white","no","Professional and Technical Occupations","yes","768","C:/Users/joaquincr/Desktop/subject-55.csv","fake","Melodramatic Milgram","4.0.5","PurpleDenomination","left","right","NA","NA","right","NA","left","1970.424799947068","5385.8043000800535","NA","NA","19238.67979994975","NA","1970.424799947068","NA","NA","2","fake_2_50","1024","2","48000","-16","experiment","55","odd","85528.9215000812","NA","73414.16970000137","99865.51690008491","NA","82412.2892000014","54052.00800008606","158232.8555000713","NA","NA","158741.38530006167","NA","54166.872700094245","NA","NA","NA","NA","NA","NA","NA","NA","NA","95849.99220003374","NA","158741.70970008709","104987.98820003867","158222.33980009332","NA","104983.4578000009","NA","95843.2072000578","160712.97800005414","NA","85517.06370001193","NA","NA","New experiment","15","34916.70089983381","27","1024"
"53","NA","53","1285","1285","#3d3846","psycho","NA","0","undefined","undefined","0","left","0","0","0","0","0","0","0","27","NA","0","27","NA","0","NA","NA","NA","0","NA","NA","NA","NA","NA","0","NA","27","0","27","0","0","0","0","27","0","0","0","NA","Fri Oct 27 17:36:52 2023","20","The main experiment item","yes","CogPsy_Assignment_With_Instruction.osexp","C:/Users/joaquincr/Desktop","no","mono","no","18","no","white","no","Professional and Technical Occupations","yes","768","C:/Users/joaquincr/Desktop/subject-55.csv","fake","Melodramatic Milgram","4.0.5","BadInk","right","right","NA","NA","right","NA","right","1090.1307000312954","5385.8043000800535","NA","NA","19238.67979994975","NA","1090.1307000312954","NA","NA","2","fake_20","1024","2","48000","-16","experiment","55","odd","85528.9215000812","NA","73414.16970000137","99865.51690008491","NA","82412.2892000014","54052.00800008606","160974.7230000794","NA","NA","161481.57830000855","NA","54166.872700094245","NA","NA","NA","NA","NA","NA","NA","NA","NA","95849.99220003374","NA","161481.86860000715","104987.98820003867","160965.66400001757","NA","104983.4578000009","NA","95843.2072000578","162572.80010008253","NA","85517.06370001193","NA","NA","New experiment","15","36006.83159986511","28","1024"
"55","NA","55","1283","1283","#3d3846","psycho","NA","1","undefined","undefined","1","right","0","0","0","0","0","0","0","28","NA","0","28","NA","0","NA","NA","NA","0","NA","NA","NA","NA","NA","0","NA","28","0","28","0","0","0","0","28","0","0","0","NA","Fri Oct 27 17:36:52 2023","50","The main experiment item","yes","CogPsy_Assignment_With_Instruction.osexp","C:/Users/joaquincr/Desktop","no","mono","no","18","no","white","no","Professional and Technical Occupations","yes","768","C:/Users/joaquincr/Desktop/subject-55.csv","real","Melodramatic Milgram","4.0.5","photo_2","right","right","NA","NA","right","NA","right","1203.2753999810666","5385.8043000800535","NA","NA","19238.67979994975","NA","1203.2753999810666","NA","NA","2","real_50","1024","2","48000","-16","experiment","55","odd","85528.9215000812","NA","73414.16970000137","99865.51690008491","NA","82412.2892000014","54052.00800008606","162823.24200007133","NA","NA","163332.8372000251","NA","54166.872700094245","NA","NA","NA","NA","NA","NA","NA","NA","NA","95849.99220003374","NA","163333.20320001803","104987.98820003867","162814.26000001375","NA","104983.4578000009","NA","95843.2072000578","164537.41850005463","NA","85517.06370001193","NA","NA","New experiment","16","37210.106999846175","29","1024"
"56","NA","56","1265","1265","#3d3846","psycho","NA","1","undefined","undefined","1","right","0","0","0","0","0","0","0","29","NA","0","29","NA","0","NA","NA","NA","0","NA","NA","NA","NA","NA","0","NA","29","0","29","0","0","0","0","29","0","0","0","NA","Fri Oct 27 17:36:52 2023","50","The main experiment item","yes","CogPsy_Assignment_With_Instruction.osexp","C:/Users/joaquincr/Desktop","no","mono","no","18","no","white","no","Professional and Technical Occupations","yes","768","C:/Users/joaquincr/Desktop/subject-55.csv","real","Melodramatic Milgram","4.0.5","photo","right","right","NA","NA","right","NA","right","758.6907000513747","5385.8043000800535","NA","NA","19238.67979994975","NA","758.6907000513747","NA","NA","2","real_50","1024","2","48000","-16","experiment","55","odd","85528.9215000812","NA","73414.16970000137","99865.51690008491","NA","82412.2892000014","54052.00800008606","164779.04749999288","NA","NA","165284.46870006155","NA","54166.872700094245","NA","NA","NA","NA","NA","NA","NA","NA","NA","95849.99220003374","NA","165284.7102000378","104987.98820003867","164769.14610003587","NA","104983.4578000009","NA","95843.2072000578","166044.18880003504","NA","85517.06370001193","NA","NA","New experiment","17","37968.79769989755","30","1024"
"58","NA","58","1267","1267","#3d3846","psycho","NA","1","undefined","undefined","1","right","0","0","0","0","0","0","0","30","NA","0","30","NA","0","NA","NA","NA","0","NA","NA","NA","NA","NA","0","NA","30","0","30","0","0","0","0","30","0","0","0","NA","Fri Oct 27 17:36:52 2023","50","The main experiment item","yes","CogPsy_Assignment_With_Instruction.osexp","C:/Users/joaquincr/Desktop","no","mono","no","18","no","white","no","Professional and Technical Occupations","yes","768","C:/Users/joaquincr/Desktop/subject-55.csv","real","Melodramatic Milgram","4.0.5","photo","right","right","NA","NA","right","NA","right","1332.4350999901071","5385.8043000800535","NA","NA","19238.67979994975","NA","1332.4350999901071","NA","NA","2","real_50","1024","2","48000","-16","experiment","55","odd","85528.9215000812","NA","73414.16970000137","99865.51690008491","NA","82412.2892000014","54052.00800008606","166328.21649999823","NA","NA","166841.57839999534","NA","54166.872700094245","NA","NA","NA","NA","NA","NA","NA","NA","NA","95849.99220003374","NA","166841.9581000926","104987.98820003867","166319.0794000402","NA","104983.4578000009","NA","95843.2072000578","168175.32270005904","NA","85517.06370001193","NA","NA","New experiment","18","39301.23279988766","31","1024"
"59","NA","59","1247","1247","#3d3846","psycho","NA","1","undefined","undefined","1","left","0","0","0","0","0","0","0","31","NA","0","31","NA","0","NA","NA","NA","0","NA","NA","NA","NA","NA","0","NA","31","0","31","0","0","0","0","31","0","0","0","NA","Fri Oct 27 17:36:52 2023","50","The main experiment item","yes","CogPsy_Assignment_With_Instruction.osexp","C:/Users/joaquincr/Desktop","no","mono","no","18","no","white","no","Professional and Technical Occupations","yes","768","C:/Users/joaquincr/Desktop/subject-55.csv","fake","Melodramatic Milgram","4.0.5","BadInk","left","right","NA","NA","right","NA","left","615.3588000452146","5385.8043000800535","NA","NA","19238.67979994975","NA","615.3588000452146","NA","NA","2","fake_2_50","1024","2","48000","-16","experiment","55","odd","85528.9215000812","NA","73414.16970000137","99865.51690008491","NA","82412.2892000014","54052.00800008606","168435.69680000655","NA","NA","168941.5403000312","NA","54166.872700094245","NA","NA","NA","NA","NA","NA","NA","NA","NA","95849.99220003374","NA","168941.73880002927","104987.98820003867","168426.2542000506","NA","104983.4578000009","NA","95843.2072000578","169558.045300073","NA","85517.06370001193","NA","NA","New experiment","19","39916.59159993287","32","1024"
"57","NA","57","1245","1245","#3d3846","psycho","NA","0","undefined","undefined","0","left","0","0","0","0","0","0","0","32","NA","0","32","NA","0","NA","NA","NA","0","NA","NA","NA","NA","NA","0","NA","32","0","32","0","0","0","0","32","0","0","0","NA","Fri Oct 27 17:36:52 2023","50","The main experiment item","yes","CogPsy_Assignment_With_Instruction.osexp","C:/Users/joaquincr/Desktop","no","mono","no","18","no","white","no","Professional and Technical Occupations","yes","768","C:/Users/joaquincr/Desktop/subject-55.csv","fake","Melodramatic Milgram","4.0.5","PurpleDenomination2","right","right","NA","NA","right","NA","right","1176.377199939452","5385.8043000800535","NA","NA","19238.67979994975","NA","1176.377199939452","NA","NA","2","fake_2_50","1024","2","48000","-16","experiment","55","odd","85528.9215000812","NA","73414.16970000137","99865.51690008491","NA","82412.2892000014","54052.00800008606","169840.77660006005","NA","NA","170346.39170009177","NA","54166.872700094245","NA","NA","NA","NA","NA","NA","NA","NA","NA","95849.99220003374","NA","170346.56010009348","104987.98820003867","169831.93830004893","NA","104983.4578000009","NA","95843.2072000578","171523.75430008397","NA","85517.06370001193","NA","NA","New experiment","19","41092.968799872324","33","1024"
"58","NA","58","1285","1285","#3d3846","psycho","NA","1","undefined","undefined","1","left","0","0","0","0","0","0","0","33","NA","0","33","NA","0","NA","NA","NA","0","NA","NA","NA","NA","NA","0","NA","33","0","33","0","0","0","0","33","0","0","0","NA","Fri Oct 27 17:36:52 2023","20","The main experiment item","yes","CogPsy_Assignment_With_Instruction.osexp","C:/Users/joaquincr/Desktop","no","mono","no","18","no","white","no","Professional and Technical Occupations","yes","768","C:/Users/joaquincr/Desktop/subject-55.csv","fake","Melodramatic Milgram","4.0.5","bottom_left","left","right","NA","NA","right","NA","left","2627.6906999992207","5385.8043000800535","NA","NA","19238.67979994975","NA","2627.6906999992207","NA","NA","2","fake_1_20","1024","2","48000","-16","experiment","55","odd","85528.9215000812","NA","73414.16970000137","99865.51690008491","NA","82412.2892000014","54052.00800008606","171711.04250010103","NA","NA","172218.39880000334","NA","54166.872700094245","NA","NA","NA","NA","NA","NA","NA","NA","NA","95849.99220003374","NA","172218.62729999702","104987.98820003867","171700.95650001895","NA","104983.4578000009","NA","95843.2072000578","174847.06850000657","NA","85517.06370001193","NA","NA","New experiment","20","43720.659499871545","34","1024"
"57","NA","57","1316","1316","#3d3846","psycho","NA","0","undefined","undefined","0","left","0","0","0","0","0","0","0","34","NA","0","34","NA","0","NA","NA","NA","0","NA","NA","NA","NA","NA","0","NA","34","0","34","0","0","0","0","34","0","0","0","NA","Fri Oct 27 17:36:52 2023","20","The main experiment item","yes","CogPsy_Assignment_With_Instruction.osexp","C:/Users/joaquincr/Desktop","no","mono","no","18","no","white","no","Professional and Technical Occupations","yes","768","C:/Users/joaquincr/Desktop/subject-55.csv","fake","Melodramatic Milgram","4.0.5","BadInk2","right","right","NA","NA","right","NA","right","2346.4303999207914","5385.8043000800535","NA","NA","19238.67979994975","NA","2346.4303999207914","NA","NA","2","fake_20","1024","2","48000","-16","experiment","55","odd","85528.9215000812","NA","73414.16970000137","99865.51690008491","NA","82412.2892000014","54052.00800008606","175088.84600002784","NA","NA","175595.1981000835","NA","54166.872700094245","NA","NA","NA","NA","NA","NA","NA","NA","NA","95849.99220003374","NA","175595.44070006814","104987.98820003867","175078.3083999995","NA","104983.4578000009","NA","95843.2072000578","177942.9040000541","NA","85517.06370001193","NA","NA","New experiment","20","46067.089899792336","35","1024"
"58","NA","58","1299","1299","#3d3846","psycho","NA","1","undefined","undefined","1","left","0","0","0","0","0","0","0","35","NA","0","35","NA","0","NA","NA","NA","0","NA","NA","NA","NA","NA","0","NA","35","0","35","0","0","0","0","35","0","0","0","NA","Fri Oct 27 17:36:52 2023","20","The main experiment item","yes","CogPsy_Assignment_With_Instruction.osexp","C:/Users/joaquincr/Desktop","no","mono","no","18","no","white","no","Professional and Technical Occupations","yes","768","C:/Users/joaquincr/Desktop/subject-55.csv","fake","Melodramatic Milgram","4.0.5","NoNumOnThread_BlurryWatermark","left","right","NA","NA","right","NA","left","724.7115999925882","5385.8043000800535","NA","NA","19238.67979994975","NA","724.7115999925882","NA","NA","2","fake_20","1024","2","48000","-16","experiment","55","odd","85528.9215000812","NA","73414.16970000137","99865.51690008491","NA","82412.2892000014","54052.00800008606","178241.19940004312","NA","NA","178746.83660001028","NA","54166.872700094245","NA","NA","NA","NA","NA","NA","NA","NA","NA","95849.99220003374","NA","178747.01100005768","104987.98820003867","178232.0963999955","NA","104983.4578000009","NA","95843.2072000578","179472.80079999473","NA","85517.06370001193","NA","NA","New experiment","21","46791.801499784924","36","1024"
"59","NA","59","1314","1314","#3d3846","psycho","NA","1","undefined","undefined","1","right","0","0","0","0","0","0","0","36","NA","0","36","NA","0","NA","NA","NA","0","NA","NA","NA","NA","NA","0","NA","36","0","36","0","0","0","0","36","0","0","0","NA","Fri Oct 27 17:36:52 2023","50","The main experiment item","yes","CogPsy_Assignment_With_Instruction.osexp","C:/Users/joaquincr/Desktop","no","mono","no","18","no","white","no","Professional and Technical Occupations","yes","768","C:/Users/joaquincr/Desktop/subject-55.csv","real","Melodramatic Milgram","4.0.5","genuine","right","right","NA","NA","right","NA","right","1832.5186999281868","5385.8043000800535","NA","NA","19238.67979994975","NA","1832.5186999281868","NA","NA","2","real_20","1024","2","48000","-16","experiment","55","odd","85528.9215000812","NA","73414.16970000137","99865.51690008491","NA","82412.2892000014","54052.00800008606","179668.78200008068","NA","NA","180175.20940001123","NA","54166.872700094245","NA","NA","NA","NA","NA","NA","NA","NA","NA","95849.99220003374","NA","180175.40260008536","104987.98820003867","179660.87600006722","NA","104983.4578000009","NA","95843.2072000578","182008.6940000765","NA","85517.06370001193","NA","NA","New experiment","22","48624.32019971311","37","1024"
"57","NA","57","1308","1308","#3d3846","psycho","NA","0","undefined","undefined","0","left","0","0","0","0","0","0","0","37","NA","0","37","NA","0","NA","NA","NA","0","NA","NA","NA","NA","NA","0","NA","37","0","37","0","0","0","0","37","0","0","0","NA","Fri Oct 27 17:36:52 2023","20","The main experiment item","yes","CogPsy_Assignment_With_Instruction.osexp","C:/Users/joaquincr/Desktop","no","mono","no","18","no","white","no","Professional and Technical Occupations","yes","768","C:/Users/joaquincr/Desktop/subject-55.csv","fake","Melodramatic Milgram","4.0.5","DullHologram","right","right","NA","NA","right","NA","right","1103.4622999140993","5385.8043000800535","NA","NA","19238.67979994975","NA","1103.4622999140993","NA","NA","2","fake_20","1024","2","48000","-16","experiment","55","odd","85528.9215000812","NA","73414.16970000137","99865.51690008491","NA","82412.2892000014","54052.00800008606","182241.42140010372","NA","NA","182747.1292000264","NA","54166.872700094245","NA","NA","NA","NA","NA","NA","NA","NA","NA","95849.99220003374","NA","182747.28950008284","104987.98820003867","182232.9445000505","NA","104983.4578000009","NA","95843.2072000578","183851.5082000522","NA","85517.06370001193","NA","NA","New experiment","22","49727.78249962721","38","1024"
"56","NA","56","1299","1299","#3d3846","psycho","NA","0","undefined","undefined","0","left","0","0","0","0","0","0","0","38","NA","0","38","NA","0","NA","NA","NA","0","NA","NA","NA","NA","NA","0","NA","38","0","38","0","0","0","0","38","0","0","0","NA","Fri Oct 27 17:36:52 2023","20","The main experiment item","yes","CogPsy_Assignment_With_Instruction.osexp","C:/Users/joaquincr/Desktop","no","mono","no","18","no","white","no","Professional and Technical Occupations","yes","768","C:/Users/joaquincr/Desktop/subject-55.csv","fake","Melodramatic Milgram","4.0.5","DullHologram","right","right","NA","NA","right","NA","right","961.848699953407","5385.8043000800535","NA","NA","19238.67979994975","NA","961.848699953407","NA","NA","2","fake_20","1024","2","48000","-16","experiment","55","odd","85528.9215000812","NA","73414.16970000137","99865.51690008491","NA","82412.2892000014","54052.00800008606","184067.97480001114","NA","NA","184574.56219999585","NA","54166.872700094245","NA","NA","NA","NA","NA","NA","NA","NA","NA","95849.99220003374","NA","184574.7709000716","104987.98820003867","184060.32869999763","NA","104983.4578000009","NA","95843.2072000578","185537.75120002683","NA","85517.06370001193","NA","NA","New experiment","22","50689.63119958062","39","1024"
"57","NA","57","1284","1284","#3d3846","psycho","NA","1","undefined","undefined","1","left","0","0","0","0","0","0","0","39","NA","0","39","NA","0","NA","NA","NA","0","NA","NA","NA","NA","NA","0","NA","39","0","39","0","0","0","0","39","0","0","0","NA","Fri Oct 27 17:36:52 2023","50","The main experiment item","yes","CogPsy_Assignment_With_Instruction.osexp","C:/Users/joaquincr/Desktop","no","mono","no","18","no","white","no","Professional and Technical Occupations","yes","768","C:/Users/joaquincr/Desktop/subject-55.csv","fake","Melodramatic Milgram","4.0.5","NoNumOnThread_BlurryWatermark","left","right","NA","NA","right","NA","left","693.8821999356151","5385.8043000800535","NA","NA","19238.67979994975","NA","693.8821999356151","NA","NA","2","fake_2_50","1024","2","48000","-16","experiment","55","odd","85528.9215000812","NA","73414.16970000137","99865.51690008491","NA","82412.2892000014","54052.00800008606","185772.37870008685","NA","NA","186278.2705000136","NA","54166.872700094245","NA","NA","NA","NA","NA","NA","NA","NA","NA","95849.99220003374","NA","186278.49010005593","104987.98820003867","185761.43660000525","NA","104983.4578000009","NA","95843.2072000578","186973.57030003332","NA","85517.06370001193","NA","NA","New experiment","23","51383.51339951623","40","1024"
"56","NA","56","1274","1274","#3d3846","psycho","NA","0","undefined","undefined","0","left","0","0","0","0","0","0","0","40","NA","0","40","NA","0","NA","NA","NA","0","NA","NA","NA","NA","NA","0","NA","40","0","40","0","0","0","0","40","0","0","0","NA","Fri Oct 27 17:36:52 2023","50","The main experiment item","yes","CogPsy_Assignment_With_Instruction.osexp","C:/Users/joaquincr/Desktop","no","mono","no","18","no","white","no","Professional and Technical Occupations","yes","768","C:/Users/joaquincr/Desktop/subject-55.csv","fake","Melodramatic Milgram","4.0.5","GreyDenomination","right","right","NA","NA","right","NA","right","888.4175000712276","5385.8043000800535","NA","NA","19238.67979994975","NA","888.4175000712276","NA","NA","2","fake_2_50","1024","2","48000","-16","experiment","55","odd","85528.9215000812","NA","73414.16970000137","99865.51690008491","NA","82412.2892000014","54052.00800008606","187197.86000007298","NA","NA","187703.3475000644","NA","54166.872700094245","NA","NA","NA","NA","NA","NA","NA","NA","NA","95849.99220003374","NA","187703.5528999986","104987.98820003867","187188.0366000114","NA","104983.4578000009","NA","95843.2072000578","188593.39570009615","NA","85517.06370001193","NA","NA","New experiment","23","52271.93089958746","41","1024"
"54","NA","54","1272","1272","#3d3846","psycho","NA","0","undefined","undefined","0","right","0","0","0","0","0","0","0","41","NA","0","41","NA","0","NA","NA","NA","0","NA","NA","NA","NA","NA","0","NA","41","0","41","0","0","0","0","41","0","0","0","NA","Fri Oct 27 17:36:52 2023","20","The main experiment item","yes","CogPsy_Assignment_With_Instruction.osexp","C:/Users/joaquincr/Desktop","no","mono","no","18","no","white","no","Professional and Technical Occupations","yes","768","C:/Users/joaquincr/Desktop/subject-55.csv","real","Melodramatic Milgram","4.0.5","photo","left","right","NA","NA","right","NA","left","1170.0929999351501","5385.8043000800535","NA","NA","19238.67979994975","NA","1170.0929999351501","NA","NA","2","real_20","1024","2","48000","-16","experiment","55","odd","85528.9215000812","NA","73414.16970000137","99865.51690008491","NA","82412.2892000014","54052.00800008606","188936.867200071","NA","NA","189443.42940009665","NA","54166.872700094245","NA","NA","NA","NA","NA","NA","NA","NA","NA","95849.99220003374","NA","189443.65550007205","104987.98820003867","188923.6874000635","NA","104983.4578000009","NA","95843.2072000578","190615.2898001019","NA","85517.06370001193","NA","NA","New experiment","23","53442.02389952261","42","1024"
"55","NA","55","1258","1258","#3d3846","psycho","NA","1","undefined","undefined","1","right","0","0","0","0","0","0","0","42","NA","0","42","NA","0","NA","NA","NA","0","NA","NA","NA","NA","NA","0","NA","42","0","42","0","0","0","0","42","0","0","0","NA","Fri Oct 27 17:36:52 2023","50","The main experiment item","yes","CogPsy_Assignment_With_Instruction.osexp","C:/Users/joaquincr/Desktop","no","mono","no","18","no","white","no","Professional and Technical Occupations","yes","768","C:/Users/joaquincr/Desktop/subject-55.csv","real","Melodramatic Milgram","4.0.5","genuine","right","right","NA","NA","right","NA","right","663.2644000928849","5385.8043000800535","NA","NA","19238.67979994975","NA","663.2644000928849","NA","NA","2","real_20","1024","2","48000","-16","experiment","55","odd","85528.9215000812","NA","73414.16970000137","99865.51690008491","NA","82412.2892000014","54052.00800008606","190862.8867000807","NA","NA","191369.32940001134","NA","54166.872700094245","NA","NA","NA","NA","NA","NA","NA","NA","NA","95849.99220003374","NA","191369.51119999867","104987.98820003867","190850.76160007156","NA","104983.4578000009","NA","95843.2072000578","192033.54990005028","NA","85517.06370001193","NA","NA","New experiment","24","54105.288299615495","43","1024"
"54","NA","54","1263","1263","#3d3846","psycho","NA","0","undefined","undefined","0","right","0","0","0","0","0","0","0","43","NA","0","43","NA","0","NA","NA","NA","0","NA","NA","NA","NA","NA","0","NA","43","0","43","0","0","0","0","43","0","0","0","NA","Fri Oct 27 17:36:52 2023","50","The main experiment item","yes","CogPsy_Assignment_With_Instruction.osexp","C:/Users/joaquincr/Desktop","no","mono","no","18","no","white","no","Professional and Technical Occupations","yes","768","C:/Users/joaquincr/Desktop/subject-55.csv","real","Melodramatic Milgram","4.0.5","photo_2","left","right","NA","NA","right","NA","left","1502.9014999745414","5385.8043000800535","NA","NA","19238.67979994975","NA","1502.9014999745414","NA","NA","2","real_50","1024","2","48000","-16","experiment","55","odd","85528.9215000812","NA","73414.16970000137","99865.51690008491","NA","82412.2892000014","54052.00800008606","192265.05260006525","NA","NA","192771.24600007664","NA","54166.872700094245","NA","NA","NA","NA","NA","NA","NA","NA","NA","95849.99220003374","NA","192771.5033000568","104987.98820003867","192254.87400009297","NA","104983.4578000009","NA","95843.2072000578","194275.34160006326","NA","85517.06370001193","NA","NA","New experiment","24","55608.189799590036","44","1024"
"53","NA","53","1256","1256","#3d3846","psycho","NA","0","undefined","undefined","0","left","0","0","0","0","0","0","0","44","NA","0","44","NA","0","NA","NA","NA","0","NA","NA","NA","NA","NA","0","NA","44","0","44","0","0","0","0","44","0","0","0","NA","Fri Oct 27 17:36:52 2023","20","The main experiment item","yes","CogPsy_Assignment_With_Instruction.osexp","C:/Users/joaquincr/Desktop","no","mono","no","18","no","white","no","Professional and Technical Occupations","yes","768","C:/Users/joaquincr/Desktop/subject-55.csv","fake","Melodramatic Milgram","4.0.5","silver_strip","right","right","NA","NA","right","NA","right","923.036599997431","5385.8043000800535","NA","NA","19238.67979994975","NA","923.036599997431","NA","NA","2","fake_2_20","1024","2","48000","-16","experiment","55","odd","85528.9215000812","NA","73414.16970000137","99865.51690008491","NA","82412.2892000014","54052.00800008606","194495.922000031","NA","NA","195002.0522000268","NA","54166.872700094245","NA","NA","NA","NA","NA","NA","NA","NA","NA","95849.99220003374","NA","195002.26690003183","104987.98820003867","194486.86840001028","NA","104983.4578000009","NA","95843.2072000578","195926.27330007963","NA","85517.06370001193","NA","NA","New experiment","24","56531.22639958747","45","1024"
"52","NA","52","1245","1245","#3d3846","psycho","NA","0","undefined","undefined","0","left","0","0","0","0","0","0","0","45","NA","0","45","NA","0","NA","NA","NA","0","NA","NA","NA","NA","NA","0","NA","45","0","45","0","0","0","0","45","0","0","0","NA","Fri Oct 27 17:36:52 2023","20","The main experiment item","yes","CogPsy_Assignment_With_Instruction.osexp","C:/Users/joaquincr/Desktop","no","mono","no","18","no","white","no","Professional and Technical Occupations","yes","768","C:/Users/joaquincr/Desktop/subject-55.csv","fake","Melodramatic Milgram","4.0.5","PurpleDenomination","right","right","NA","NA","right","NA","right","775.8146999403834","5385.8043000800535","NA","NA","19238.67979994975","NA","775.8146999403834","NA","NA","2","fake_20","1024","2","48000","-16","experiment","55","odd","85528.9215000812","NA","73414.16970000137","99865.51690008491","NA","82412.2892000014","54052.00800008606","196167.4772000406","NA","NA","196672.92660009116","NA","54166.872700094245","NA","NA","NA","NA","NA","NA","NA","NA","NA","95849.99220003374","NA","196673.07770007756","104987.98820003867","196158.5752000101","NA","104983.4578000009","NA","95843.2072000578","197449.91670001764","NA","85517.06370001193","NA","NA","New experiment","24","57307.04109952785","46","1024"
"51","NA","51","1242","1242","#3d3846","psycho","NA","0","undefined","undefined","0","left","0","0","0","0","0","0","0","46","NA","0","46","NA","0","NA","NA","NA","0","NA","NA","NA","NA","NA","0","NA","46","0","46","0","0","0","0","46","0","0","0","NA","Fri Oct 27 17:36:52 2023","20","The main experiment item","yes","CogPsy_Assignment_With_Instruction.osexp","C:/Users/joaquincr/Desktop","no","mono","no","18","no","white","no","Professional and Technical Occupations","yes","768","C:/Users/joaquincr/Desktop/subject-55.csv","fake","Melodramatic Milgram","4.0.5","DullHologram2","right","right","NA","NA","right","NA","right","1082.6306999661028","5385.8043000800535","NA","NA","19238.67979994975","NA","1082.6306999661028","NA","NA","2","fake_20","1024","2","48000","-16","experiment","55","odd","85528.9215000812","NA","73414.16970000137","99865.51690008491","NA","82412.2892000014","54052.00800008606","197687.74720001966","NA","NA","198194.57960000727","NA","54166.872700094245","NA","NA","NA","NA","NA","NA","NA","NA","NA","95849.99220003374","NA","198194.78230003733","104987.98820003867","197677.71379998885","NA","104983.4578000009","NA","95843.2072000578","199278.64120004233","NA","85517.06370001193","NA","NA","New experiment","24","58389.67179949395","47","1024"
"50","NA","50","1245","1245","#3d3846","psycho","NA","0","undefined","undefined","0","left","0","0","0","0","0","0","0","47","NA","0","47","NA","0","NA","NA","NA","0","NA","NA","NA","NA","NA","0","NA","47","0","47","0","0","0","0","47","0","0","0","NA","Fri Oct 27 17:36:52 2023","50","The main experiment item","yes","CogPsy_Assignment_With_Instruction.osexp","C:/Users/joaquincr/Desktop","no","mono","no","18","no","white","no","Professional and Technical Occupations","yes","768","C:/Users/joaquincr/Desktop/subject-55.csv","fake","Melodramatic Milgram","4.0.5","PurpleDenomination3","right","right","NA","NA","right","NA","right","1416.2730999523774","5385.8043000800535","NA","NA","19238.67979994975","NA","1416.2730999523774","NA","NA","2","fake_2_50","1024","2","48000","-16","experiment","55","odd","85528.9215000812","NA","73414.16970000137","99865.51690008491","NA","82412.2892000014","54052.00800008606","199528.34900002927","NA","NA","200035.09150003083","NA","54166.872700094245","NA","NA","NA","NA","NA","NA","NA","NA","NA","95849.99220003374","NA","200035.29170004185","104987.98820003867","199519.80230002664","NA","104983.4578000009","NA","95843.2072000578","201452.73650006857","NA","85517.06370001193","NA","NA","New experiment","24","59805.94489944633","48","1024"
"48","NA","48","1247","1247","#3d3846","psycho","NA","0","undefined","undefined","0","left","0","0","0","0","0","0","0","48","NA","0","48","NA","0","NA","NA","NA","0","NA","NA","NA","NA","NA","0","NA","48","0","48","0","0","0","0","48","0","0","0","NA","Fri Oct 27 17:36:52 2023","20","The main experiment item","yes","CogPsy_Assignment_With_Instruction.osexp","C:/Users/joaquincr/Desktop","no","mono","no","18","no","white","no","Professional and Technical Occupations","yes","768","C:/Users/joaquincr/Desktop/subject-55.csv","fake","Melodramatic Milgram","4.0.5","BadInk","right","right","NA","NA","right","NA","right","1330.50679997541","5385.8043000800535","NA","NA","19238.67979994975","NA","1330.50679997541","NA","NA","2","fake_20","1024","2","48000","-16","experiment","55","odd","85528.9215000812","NA","73414.16970000137","99865.51690008491","NA","82412.2892000014","54052.00800008606","201697.72610010114","NA","NA","202204.21540003736","NA","54166.872700094245","NA","NA","NA","NA","NA","NA","NA","NA","NA","95849.99220003374","NA","202204.4976000907","104987.98820003867","201689.80709998868","NA","104983.4578000009","NA","95843.2072000578","203536.18660010397","NA","85517.06370001193","NA","NA","New experiment","24","61136.45169942174","49","1024"
"48","NA","48","1250","1250","#3d3846","psycho","NA","0","undefined","undefined","0","left","0","0","0","0","0","0","0","49","NA","0","49","NA","0","NA","NA","NA","0","NA","NA","NA","NA","NA","0","NA","49","0","49","0","0","0","0","49","0","0","0","NA","Fri Oct 27 17:36:52 2023","20","The main experiment item","yes","CogPsy_Assignment_With_Instruction.osexp","C:/Users/joaquincr/Desktop","no","mono","no","18","no","white","no","Professional and Technical Occupations","yes","768","C:/Users/joaquincr/Desktop/subject-55.csv","fake","Melodramatic Milgram","4.0.5","PurpleDenomination","right","right","NA","NA","right","NA","right","1403.6969000007957","5385.8043000800535","NA","NA","19238.67979994975","NA","1403.6969000007957","NA","NA","2","fake_20","1024","2","48000","-16","experiment","55","odd","85528.9215000812","NA","73414.16970000137","99865.51690008491","NA","82412.2892000014","54052.00800008606","203787.5800000038","NA","NA","204293.44520007726","NA","54166.872700094245","NA","NA","NA","NA","NA","NA","NA","NA","NA","95849.99220003374","NA","204293.66409999784","104987.98820003867","203778.92930002417","NA","104983.4578000009","NA","95843.2072000578","205698.50300007965","NA","85517.06370001193","NA","NA","New experiment","24","62540.14859942254","50","1024"
"49","NA","49","1252","1252","#3d3846","psycho","NA","1","undefined","undefined","1","left","0","0","0","0","0","0","0","50","NA","0","50","NA","0","NA","NA","NA","0","NA","NA","NA","NA","NA","0","NA","50","0","50","0","0","0","0","50","0","0","0","NA","Fri Oct 27 17:36:52 2023","50","The main experiment item","yes","CogPsy_Assignment_With_Instruction.osexp","C:/Users/joaquincr/Desktop","no","mono","no","18","no","white","no","Professional and Technical Occupations","yes","768","C:/Users/joaquincr/Desktop/subject-55.csv","fake","Melodramatic Milgram","4.0.5","silver_strip","left","right","NA","NA","right","NA","left","1332.2283000452444","5385.8043000800535","NA","NA","19238.67979994975","NA","1332.2283000452444","NA","NA","2","fake_2_50","1024","2","48000","-16","experiment","55","odd","85528.9215000812","NA","73414.16970000137","99865.51690008491","NA","82412.2892000014","54052.00800008606","205905.6601000484","NA","NA","206411.84340009931","NA","54166.872700094245","NA","NA","NA","NA","NA","NA","NA","NA","NA","95849.99220003374","NA","206412.10740001407","104987.98820003867","205896.71270002145","NA","104983.4578000009","NA","95843.2072000578","207745.36840000656","NA","85517.06370001193","NA","NA","New experiment","25","63872.37689946778","51","1024"
"50","NA","50","1266","1266","#3d3846","psycho","NA","1","undefined","undefined","1","left","0","0","0","0","0","0","0","51","NA","0","51","NA","0","NA","NA","NA","0","NA","NA","NA","NA","NA","0","NA","51","0","51","0","0","0","0","51","0","0","0","NA","Fri Oct 27 17:36:52 2023","20","The main experiment item","yes","CogPsy_Assignment_With_Instruction.osexp","C:/Users/joaquincr/Desktop","no","mono","no","18","no","white","no","Professional and Technical Occupations","yes","768","C:/Users/joaquincr/Desktop/subject-55.csv","fake","Melodramatic Milgram","4.0.5","BadInk2","left","right","NA","NA","right","NA","left","2006.3694000709802","5385.8043000800535","NA","NA","19238.67979994975","NA","2006.3694000709802","NA","NA","2","fake_20","1024","2","48000","-16","experiment","55","odd","85528.9215000812","NA","73414.16970000137","99865.51690008491","NA","82412.2892000014","54052.00800008606","208022.0311000012","NA","NA","208528.44970009755","NA","54166.872700094245","NA","NA","NA","NA","NA","NA","NA","NA","NA","95849.99220003374","NA","208528.75699999277","104987.98820003867","208013.30800005235","NA","104983.4578000009","NA","95843.2072000578","210536.23610001523","NA","85517.06370001193","NA","NA","New experiment","26","65878.74629953876","52","1024"
"49","NA","49","1260","1260","#3d3846","psycho","NA","0","undefined","undefined","0","left","0","0","0","0","0","0","0","52","NA","0","52","NA","0","NA","NA","NA","0","NA","NA","NA","NA","NA","0","NA","52","0","52","0","0","0","0","52","0","0","0","NA","Fri Oct 27 17:36:52 2023","50","The main experiment item","yes","CogPsy_Assignment_With_Instruction.osexp","C:/Users/joaquincr/Desktop","no","mono","no","18","no","white","no","Professional and Technical Occupations","yes","768","C:/Users/joaquincr/Desktop/subject-55.csv","fake","Melodramatic Milgram","4.0.5","BadInk","right","right","NA","NA","right","NA","right","912.1784999733791","5385.8043000800535","NA","NA","19238.67979994975","NA","912.1784999733791","NA","NA","2","fake_2_50","1024","2","48000","-16","experiment","55","odd","85528.9215000812","NA","73414.16970000137","99865.51690008491","NA","82412.2892000014","54052.00800008606","210839.9597000098","NA","NA","211346.33770002984","NA","54166.872700094245","NA","NA","NA","NA","NA","NA","NA","NA","NA","95849.99220003374","NA","211346.60620009527","104987.98820003867","210829.00850009173","NA","104983.4578000009","NA","95843.2072000578","212259.82900010422","NA","85517.06370001193","NA","NA","New experiment","26","66790.92479951214","53","1024"
"48","NA","48","1251","1251","#3d3846","psycho","NA","0","undefined","undefined","0","right","0","0","0","0","0","0","0","53","NA","0","53","NA","0","NA","NA","NA","0","NA","NA","NA","NA","NA","0","NA","53","0","53","0","0","0","0","53","0","0","0","NA","Fri Oct 27 17:36:52 2023","50","The main experiment item","yes","CogPsy_Assignment_With_Instruction.osexp","C:/Users/joaquincr/Desktop","no","mono","no","18","no","white","no","Professional and Technical Occupations","yes","768","C:/Users/joaquincr/Desktop/subject-55.csv","real","Melodramatic Milgram","4.0.5","photo_2","left","right","NA","NA","right","NA","left","797.5200000219047","5385.8043000800535","NA","NA","19238.67979994975","NA","797.5200000219047","NA","NA","2","real_50","1024","2","48000","-16","experiment","55","odd","85528.9215000812","NA","73414.16970000137","99865.51690008491","NA","82412.2892000014","54052.00800008606","212476.87500005122","NA","NA","212983.4414999932","NA","54166.872700094245","NA","NA","NA","NA","NA","NA","NA","NA","NA","95849.99220003374","NA","212983.72110002674","104987.98820003867","212468.53870002087","NA","104983.4578000009","NA","95843.2072000578","213782.8166000545","NA","85517.06370001193","NA","NA","New experiment","26","67588.44479953405","54","1024"
"48","NA","48","1251","1251","#3d3846","psycho","NA","0","undefined","undefined","0","right","0","0","0","0","0","0","0","53","NA","0","53","NA","0","NA","NA","NA","0","NA","NA","NA","NA","NA","0","NA","53","0","53","0","0","0","0","53","0","0","0","NA","Fri Oct 27 17:36:52 2023","50","The main experiment item","yes","CogPsy_Assignment_With_Instruction.osexp","C:/Users/joaquincr/Desktop","no","mono","no","18","no","white","no","color, features on bank note, size of features","yes","768","C:/Users/joaquincr/Desktop/subject-55.csv","real","Melodramatic Milgram","4.0.5","photo_2","color, features on bank note, size of features","right","NA","NA","right","NA","left","797.5200000219047","5385.8043000800535","NA","NA","19238.67979994975","NA","797.5200000219047","NA","NA","2","real_50","1024","2","48000","-16","experiment","55","odd","85528.9215000812","NA","73414.16970000137","99865.51690008491","NA","82412.2892000014","54052.00800008606","212476.87500005122","NA","NA","212983.4414999932","NA","54166.872700094245","NA","NA","NA","259824.311900069","NA","NA","NA","NA","NA","95849.99220003374","NA","212983.72110002674","104987.98820003867","212468.53870002087","NA","104983.4578000009","213879.09649999347","95843.2072000578","213782.8166000545","NA","85517.06370001193","NA","NA","New experiment","26","67588.44479953405","54","1024"
"48","NA","48","1251","1251","#3d3846","psycho","NA","0","undefined","undefined","0","right","0","0","0","0","0","0","0","53","NA","0","53","NA","0","NA","NA","NA","0","NA","NA","NA","NA","NA","0","NA","53","0","53","0","0","0","0","53","0","0","0","NA","Fri Oct 27 17:36:52 2023","50","The main experiment item","yes","CogPsy_Assignment_With_Instruction.osexp","C:/Users/joaquincr/Desktop","no","mono","no","18","no","white","no","Ok","yes","768","C:/Users/joaquincr/Desktop/subject-55.csv","real","Melodramatic Milgram","4.0.5","photo_2","UV hologram;Colors of text;Ink quality","right","NA","NA","right","NA","left","797.5200000219047","5385.8043000800535","NA","NA","19238.67979994975","NA","797.5200000219047","NA","NA","2","real_50","1024","2","48000","-16","experiment","55","odd","85528.9215000812","NA","73414.16970000137","99865.51690008491","NA","82412.2892000014","54052.00800008606","212476.87500005122","NA","NA","212983.4414999932","NA","54166.872700094245","NA","NA","NA","259824.311900069","NA","NA","NA","NA","NA","95849.99220003374","NA","212983.72110002674","104987.98820003867","212468.53870002087","NA","104983.4578000009","213879.09649999347","95843.2072000578","213782.8166000545","NA","85517.06370001193","271114.1598999966","NA","New experiment","26","67588.44479953405","54","1024"
