"acc","accept_status","accuracy","average_response_time","avg_rt","background","canvas_backend","checkbox_status","correct","correct_consent_sketchpad","correct_instruction_sketchpad","correct_new_keyboard_response","correct_response","count_age_form","count_checkbox_security_form","count_consent_sketchpad","count_country_logger","count_eurozone_form","count_eurozone_logger","count_experiment","count_fixation_dots","count_getting_started","count_goodbye_sketchpad","count_images_sketchpad","count_information_display_sketchpad","count_instruction_sketchpad","count_new_1_form_base","count_new_1_form_text_input","count_new_1_sketchpad","count_new_2_logger","count_new_4_form_multiple_choice","count_new_form_base","count_new_form_consent","count_new_form_multiple_choice","count_new_form_text_display","count_new_form_text_input","count_new_inline_script","count_new_keyboard_response","count_new_loop","count_new_sequence","count_occupation_form","count_occupation_logger","count_open_security_input_form","count_personal_data_logger","count_response_logger","count_schooling_level_form","count_schooling_logger","count_security_feature_logger","count_welcome","datetime","denomination","description","disable_garbage_collection","experiment_file","experiment_path","font_bold","font_family","font_italic","font_size","font_underline","foreground","form_clicks","form_response","fullscreen","height","logfile","note_type","opensesame_codename","opensesame_version","reason","response","response_consent_sketchpad","response_goodbye_sketchpad","response_information_display_sketchpad","response_instruction_sketchpad","response_new_1_sketchpad","response_new_keyboard_response","response_time","response_time_consent_sketchpad","response_time_goodbye_sketchpad","response_time_information_display_sketchpad","response_time_instruction_sketchpad","response_time_new_1_sketchpad","response_time_new_keyboard_response","response_time_welcome","response_welcome","round_decimals","show","sound_buf_size","sound_channels","sound_freq","sound_sample_size","start","subject_nr","subject_parity","time_age_form","time_checkbox_security_form","time_consent_sketchpad","time_country_logger","time_eurozone_form","time_eurozone_logger","time_experiment","time_fixation_dots","time_getting_started","time_goodbye_sketchpad","time_images_sketchpad","time_information_display_sketchpad","time_instruction_sketchpad","time_new_1_form_base","time_new_1_form_text_input","time_new_1_sketchpad","time_new_2_logger","time_new_4_form_multiple_choice","time_new_form_base","time_new_form_consent","time_new_form_multiple_choice","time_new_form_text_display","time_new_form_text_input","time_new_inline_script","time_new_keyboard_response","time_new_loop","time_new_sequence","time_occupation_form","time_occupation_logger","time_open_security_input_form","time_personal_data_logger","time_response_logger","time_schooling_level_form","time_schooling_logger","time_security_feature_logger","time_welcome","title","total_correct","total_response_time","total_responses","width"
"undefined","NA","undefined","undefined","undefined","#3d3846","psycho","NA","undefined","undefined","undefined","NA","NA","0","0","0","0","0","0","0","NA","NA","0","NA","NA","0","NA","NA","NA","0","NA","NA","NA","NA","NA","0","NA","NA","0","NA","0","0","0","0","NA","0","0","0","NA","Sun Oct 15 16:24:08 2023","NA","The main experiment item","yes","CogPsy_Assignment_With_Instruction.osexp","/Users/joesidley/Desktop","no","mono","no","18","no","white","no","No","yes","768","/Users/joesidley/Desktop/subject-10.csv","NA","Melodramatic Milgram","4.0.5","NA","No","space","NA","NA","space","NA","NA","3023.7627120004618","3023.7627120004618","NA","NA","15902.018347000194","NA","NA","NA","NA","2","NA","1024","2","48000","-16","experiment","10","even","NA","NA","23884.032541000124","NA","NA","37642.338625000775","7907.6753450008255","NA","NA","NA","NA","NA","7939.765056000397","NA","NA","NA","NA","NA","NA","NA","NA","NA","NA","NA","NA","NA","NA","NA","NA","NA","NA","NA","NA","NA","NA","NA","New experiment","0","0","0","1024"
"undefined","NA","undefined","undefined","undefined","#3d3846","psycho","NA","undefined","undefined","undefined","NA","NA","0","0","0","0","0","0","0","NA","NA","0","NA","NA","0","NA","NA","NA","0","NA","NA","NA","NA","NA","0","NA","NA","0","NA","0","0","0","0","NA","0","0","0","NA","Sun Oct 15 16:24:08 2023","NA","The main experiment item","yes","CogPsy_Assignment_With_Instruction.osexp","/Users/joesidley/Desktop","no","mono","no","18","no","white","no","Bachelors","yes","768","/Users/joesidley/Desktop/subject-10.csv","NA","Melodramatic Milgram","4.0.5","NA","Bachelors","space","NA","NA","space","NA","NA","3023.7627120004618","3023.7627120004618","NA","NA","15902.018347000194","NA","NA","NA","NA","2","NA","1024","2","48000","-16","experiment","10","even","NA","NA","23884.032541000124","NA","NA","37642.338625000775","7907.6753450008255","NA","NA","NA","NA","NA","7939.765056000397","NA","NA","NA","NA","NA","NA","NA","NA","NA","NA","NA","NA","NA","NA","NA","NA","NA","NA","NA","NA","41331.25984599974","NA","NA","New experiment","0","0","0","1024"
"undefined","NA","undefined","undefined","undefined","#3d3846","psycho","NA","undefined","undefined","undefined","NA","NA","0","0","0","0","0","0","0","NA","NA","0","NA","NA","0","NA","NA","NA","0","NA","NA","NA","NA","NA","0","NA","NA","0","NA","0","0","0","0","NA","0","0","0","NA","Sun Oct 15 16:24:08 2023","NA","The main experiment item","yes","CogPsy_Assignment_With_Instruction.osexp","/Users/joesidley/Desktop","no","mono","no","18","no","white","no","23","yes","768","/Users/joesidley/Desktop/subject-10.csv","NA","Melodramatic Milgram","4.0.5","NA","23","space","NA","NA","space","NA","NA","3023.7627120004618","3023.7627120004618","NA","NA","15902.018347000194","NA","NA","NA","NA","2","NA","1024","2","48000","-16","experiment","10","even","41333.129488999475","NA","23884.032541000124","NA","NA","37642.338625000775","7907.6753450008255","NA","NA","NA","NA","NA","7939.765056000397","NA","NA","NA","NA","NA","NA","NA","NA","NA","NA","NA","NA","NA","NA","NA","NA","NA","47448.02506000087","NA","NA","41331.25984599974","NA","NA","New experiment","0","0","0","1024"
"undefined","NA","undefined","undefined","undefined","#3d3846","psycho","NA","undefined","undefined","undefined","NA","NA","0","0","0","0","0","0","0","NA","NA","0","NA","NA","0","NA","NA","NA","0","NA","NA","NA","NA","NA","0","NA","NA","0","NA","0","0","0","0","NA","0","0","0","NA","Sun Oct 15 16:24:08 2023","NA","The main experiment item","yes","CogPsy_Assignment_With_Instruction.osexp","/Users/joesidley/Desktop","no","mono","no","18","no","white","no","South African","yes","768","/Users/joesidley/Desktop/subject-10.csv","NA","Melodramatic Milgram","4.0.5","NA","South African","space","NA","NA","space","NA","NA","3023.7627120004618","3023.7627120004618","NA","NA","15902.018347000194","NA","NA","NA","NA","2","NA","1024","2","48000","-16","experiment","10","even","41333.129488999475","NA","23884.032541000124","54590.05699699992","NA","37642.338625000775","7907.6753450008255","NA","NA","NA","NA","NA","7939.765056000397","NA","NA","NA","NA","NA","NA","NA","NA","NA","47449.93421900108","NA","NA","NA","NA","NA","NA","NA","47448.02506000087","NA","NA","41331.25984599974","NA","NA","New experiment","0","0","0","1024"
"undefined","NA","undefined","undefined","undefined","#3d3846","psycho","NA","undefined","undefined","undefined","NA","NA","0","0","0","0","0","0","0","NA","NA","0","NA","NA","0","NA","NA","NA","0","NA","NA","NA","NA","NA","0","NA","NA","0","NA","0","0","0","0","NA","0","0","0","NA","Sun Oct 15 16:24:08 2023","NA","The main experiment item","yes","CogPsy_Assignment_With_Instruction.osexp","/Users/joesidley/Desktop","no","mono","no","18","no","white","no","Student","yes","768","/Users/joesidley/Desktop/subject-10.csv","NA","Melodramatic Milgram","4.0.5","NA","Student","space","NA","NA","space","NA","NA","3023.7627120004618","3023.7627120004618","NA","NA","15902.018347000194","NA","NA","NA","NA","2","NA","1024","2","48000","-16","experiment","10","even","41333.129488999475","NA","23884.032541000124","54590.05699699992","NA","37642.338625000775","7907.6753450008255","NA","NA","NA","NA","NA","7939.765056000397","NA","NA","NA","NA","NA","NA","NA","NA","NA","47449.93421900108","NA","NA","NA","NA","NA","60059.26237800122","NA","47448.02506000087","NA","NA","41331.25984599974","NA","NA","New experiment","0","0","0","1024"
"100","NA","100","13098","13098","#3d3846","psycho","NA","1","undefined","undefined","1","left","0","0","0","0","0","0","0","0","NA","0","0","NA","0","NA","NA","NA","0","NA","NA","NA","NA","NA","0","NA","0","0","0","0","0","0","0","0","0","0","0","NA","Sun Oct 15 16:24:08 2023","20","The main experiment item","yes","CogPsy_Assignment_With_Instruction.osexp","/Users/joesidley/Desktop","no","mono","no","18","no","white","no","Student","yes","768","/Users/joesidley/Desktop/subject-10.csv","fake","Melodramatic Milgram","4.0.5","PurpleDenomination","left","space","NA","NA","space","NA","left","13098.979264999798","3023.7627120004618","NA","NA","15902.018347000194","NA","13098.979264999798","NA","NA","2","fake_20","1024","2","48000","-16","experiment","10","even","41333.129488999475","NA","23884.032541000124","54590.05699699992","NA","37642.338625000775","7907.6753450008255","60182.901023999875","NA","NA","60687.66157900063","NA","7939.765056000397","NA","NA","NA","NA","NA","NA","NA","NA","NA","47449.93421900108","NA","60688.00575400019","60060.99121800071","60169.48671800128","NA","60059.26237800122","NA","47448.02506000087","73788.36727199996","NA","41331.25984599974","NA","NA","New experiment","1","13098.979264999798","1","1024"
"100","NA","100","8743","8743","#3d3846","psycho","NA","1","undefined","undefined","1","left","0","0","0","0","0","0","0","1","NA","0","1","NA","0","NA","NA","NA","0","NA","NA","NA","NA","NA","0","NA","1","0","1","0","0","0","0","1","0","0","0","NA","Sun Oct 15 16:24:08 2023","50","The main experiment item","yes","CogPsy_Assignment_With_Instruction.osexp","/Users/joesidley/Desktop","no","mono","no","18","no","white","no","Student","yes","768","/Users/joesidley/Desktop/subject-10.csv","fake","Melodramatic Milgram","4.0.5","NoNumOnThread_BlurryWatermark","left","space","NA","NA","space","NA","left","4388.7490759989305","3023.7627120004618","NA","NA","15902.018347000194","NA","4388.7490759989305","NA","NA","2","fake_2_50","1024","2","48000","-16","experiment","10","even","41333.129488999475","NA","23884.032541000124","54590.05699699992","NA","37642.338625000775","7907.6753450008255","73964.79129600084","NA","NA","74470.2072529999","NA","7939.765056000397","NA","NA","NA","NA","NA","NA","NA","NA","NA","47449.93421900108","NA","74470.54652100087","60060.99121800071","73955.58468499985","NA","60059.26237800122","NA","47448.02506000087","78860.63993700009","NA","41331.25984599974","NA","NA","New experiment","2","17487.72834099873","2","1024"
"100","NA","100","6282","6282","#3d3846","psycho","NA","1","undefined","undefined","1","right","0","0","0","0","0","0","0","2","NA","0","2","NA","0","NA","NA","NA","0","NA","NA","NA","NA","NA","0","NA","2","0","2","0","0","0","0","2","0","0","0","NA","Sun Oct 15 16:24:08 2023","50","The main experiment item","yes","CogPsy_Assignment_With_Instruction.osexp","/Users/joesidley/Desktop","no","mono","no","18","no","white","no","Student","yes","768","/Users/joesidley/Desktop/subject-10.csv","real","Melodramatic Milgram","4.0.5","photo","right","space","NA","NA","space","NA","right","1359.3544689992996","3023.7627120004618","NA","NA","15902.018347000194","NA","1359.3544689992996","NA","NA","2","real_50","1024","2","48000","-16","experiment","10","even","41333.129488999475","NA","23884.032541000124","54590.05699699992","NA","37642.338625000775","7907.6753450008255","79023.19238200107","NA","NA","79527.5707740002","NA","7939.765056000397","NA","NA","NA","NA","NA","NA","NA","NA","NA","47449.93421900108","NA","79527.89376200053","60060.99121800071","79016.60311200067","NA","60059.26237800122","NA","47448.02506000087","80888.75959500001","NA","41331.25984599974","NA","NA","New experiment","3","18847.082809998028","3","1024"
"75","NA","75","6363","6363","#3d3846","psycho","NA","0","undefined","undefined","0","left","0","0","0","0","0","0","0","3","NA","0","3","NA","0","NA","NA","NA","0","NA","NA","NA","NA","NA","0","NA","3","0","3","0","0","0","0","3","0","0","0","NA","Sun Oct 15 16:24:08 2023","50","The main experiment item","yes","CogPsy_Assignment_With_Instruction.osexp","/Users/joesidley/Desktop","no","mono","no","18","no","white","no","Student","yes","768","/Users/joesidley/Desktop/subject-10.csv","fake","Melodramatic Milgram","4.0.5","BadInk","right","space","NA","NA","space","NA","right","6605.937604999781","3023.7627120004618","NA","NA","15902.018347000194","NA","6605.937604999781","NA","NA","2","fake_2_50","1024","2","48000","-16","experiment","10","even","41333.129488999475","NA","23884.032541000124","54590.05699699992","NA","37642.338625000775","7907.6753450008255","81060.00100200072","NA","NA","81565.14766600048","NA","7939.765056000397","NA","NA","NA","NA","NA","NA","NA","NA","NA","47449.93421900108","NA","81565.55039900013","60060.99121800071","81053.42265699983","NA","60059.26237800122","NA","47448.02506000087","88172.85983200054","NA","41331.25984599974","NA","NA","New experiment","3","25453.02041499781","4","1024"
"60","NA","60","6608","6608","#3d3846","psycho","NA","0","undefined","undefined","0","left","0","0","0","0","0","0","0","4","NA","0","4","NA","0","NA","NA","NA","0","NA","NA","NA","NA","NA","0","NA","4","0","4","0","0","0","0","4","0","0","0","NA","Sun Oct 15 16:24:08 2023","20","The main experiment item","yes","CogPsy_Assignment_With_Instruction.osexp","/Users/joesidley/Desktop","no","mono","no","18","no","white","no","Student","yes","768","/Users/joesidley/Desktop/subject-10.csv","fake","Melodramatic Milgram","4.0.5","BrownDenomination","right","space","NA","NA","space","NA","right","7587.916710999707","3023.7627120004618","NA","NA","15902.018347000194","NA","7587.916710999707","NA","NA","2","fake_20","1024","2","48000","-16","experiment","10","even","41333.129488999475","NA","23884.032541000124","54590.05699699992","NA","37642.338625000775","7907.6753450008255","88337.89972500017","NA","NA","88845.62224100046","NA","7939.765056000397","NA","NA","NA","NA","NA","NA","NA","NA","NA","47449.93421900108","NA","88846.10414300005","60060.99121800071","88329.2820250008","NA","60059.26237800122","NA","47448.02506000087","96435.4103679998","NA","41331.25984599974","NA","NA","New experiment","3","33040.937125997516","5","1024"
"66","NA","66","6485","6485","#3d3846","psycho","NA","1","undefined","undefined","1","left","0","0","0","0","0","0","0","5","NA","0","5","NA","0","NA","NA","NA","0","NA","NA","NA","NA","NA","0","NA","5","0","5","0","0","0","0","5","0","0","0","NA","Sun Oct 15 16:24:08 2023","50","The main experiment item","yes","CogPsy_Assignment_With_Instruction.osexp","/Users/joesidley/Desktop","no","mono","no","18","no","white","no","Student","yes","768","/Users/joesidley/Desktop/subject-10.csv","fake","Melodramatic Milgram","4.0.5","silver_strip","left","space","NA","NA","space","NA","left","5874.453368000104","3023.7627120004618","NA","NA","15902.018347000194","NA","5874.453368000104","NA","NA","2","fake_2_50","1024","2","48000","-16","experiment","10","even","41333.129488999475","NA","23884.032541000124","54590.05699699992","NA","37642.338625000775","7907.6753450008255","96575.32462900053","NA","NA","97080.26641000106","NA","7939.765056000397","NA","NA","NA","NA","NA","NA","NA","NA","NA","47449.93421900108","NA","97080.5676330001","60060.99121800071","96567.98767300097","NA","60059.26237800122","NA","47448.02506000087","102956.46723500067","NA","41331.25984599974","NA","NA","New experiment","4","38915.39049399762","6","1024"
"57","NA","57","5880","5880","#3d3846","psycho","NA","0","undefined","undefined","0","left","0","0","0","0","0","0","0","6","NA","0","6","NA","0","NA","NA","NA","0","NA","NA","NA","NA","NA","0","NA","6","0","6","0","0","0","0","6","0","0","0","NA","Sun Oct 15 16:24:08 2023","50","The main experiment item","yes","CogPsy_Assignment_With_Instruction.osexp","/Users/joesidley/Desktop","no","mono","no","18","no","white","no","Student","yes","768","/Users/joesidley/Desktop/subject-10.csv","fake","Melodramatic Milgram","4.0.5","GreyDenomination","right","space","NA","NA","space","NA","right","2250.459464999949","3023.7627120004618","NA","NA","15902.018347000194","NA","2250.459464999949","NA","NA","2","fake_2_50","1024","2","48000","-16","experiment","10","even","41333.129488999475","NA","23884.032541000124","54590.05699699992","NA","37642.338625000775","7907.6753450008255","103113.20475399953","NA","NA","103618.49748399982","NA","7939.765056000397","NA","NA","NA","NA","NA","NA","NA","NA","NA","47449.93421900108","NA","103618.84810400079","60060.99121800071","103104.75098899951","NA","60059.26237800122","NA","47448.02506000087","105871.57131999993","NA","41331.25984599974","NA","NA","New experiment","4","41165.84995899757","7","1024"
"50","NA","50","6013","6013","#3d3846","psycho","NA","0","undefined","undefined","0","left","0","0","0","0","0","0","0","7","NA","0","7","NA","0","NA","NA","NA","0","NA","NA","NA","NA","NA","0","NA","7","0","7","0","0","0","0","7","0","0","0","NA","Sun Oct 15 16:24:08 2023","50","The main experiment item","yes","CogPsy_Assignment_With_Instruction.osexp","/Users/joesidley/Desktop","no","mono","no","18","no","white","no","Student","yes","768","/Users/joesidley/Desktop/subject-10.csv","fake","Melodramatic Milgram","4.0.5","bottom_left","right","space","NA","NA","space","NA","right","6944.294136999815","3023.7627120004618","NA","NA","15902.018347000194","NA","6944.294136999815","NA","NA","2","fake_1_50","1024","2","48000","-16","experiment","10","even","41333.129488999475","NA","23884.032541000124","54590.05699699992","NA","37642.338625000775","7907.6753450008255","106003.07872700068","NA","NA","106507.71533999978","NA","7939.765056000397","NA","NA","NA","NA","NA","NA","NA","NA","NA","47449.93421900108","NA","106508.049940001","60060.99121800071","105997.02345200058","NA","60059.26237800122","NA","47448.02506000087","113453.9165440001","NA","41331.25984599974","NA","NA","New experiment","4","48110.144095997384","8","1024"
"55","NA","55","5955","5955","#3d3846","psycho","NA","1","undefined","undefined","1","right","0","0","0","0","0","0","0","8","NA","0","8","NA","0","NA","NA","NA","0","NA","NA","NA","NA","NA","0","NA","8","0","8","0","0","0","0","8","0","0","0","NA","Sun Oct 15 16:24:08 2023","50","The main experiment item","yes","CogPsy_Assignment_With_Instruction.osexp","/Users/joesidley/Desktop","no","mono","no","18","no","white","no","Student","yes","768","/Users/joesidley/Desktop/subject-10.csv","real","Melodramatic Milgram","4.0.5","photo","right","space","NA","NA","space","NA","right","5486.745445999986","3023.7627120004618","NA","NA","15902.018347000194","NA","5486.745445999986","NA","NA","2","real_50","1024","2","48000","-16","experiment","10","even","41333.129488999475","NA","23884.032541000124","54590.05699699992","NA","37642.338625000775","7907.6753450008255","113610.30593600117","NA","NA","114114.91772800036","NA","7939.765056000397","NA","NA","NA","NA","NA","NA","NA","NA","NA","47449.93421900108","NA","114115.20774699966","60060.99121800071","113601.80751900043","NA","60059.26237800122","NA","47448.02506000087","119604.45330200128","NA","41331.25984599974","NA","NA","New experiment","5","53596.88954199737","9","1024"
"60","NA","60","5529","5529","#3d3846","psycho","NA","1","undefined","undefined","1","right","0","0","0","0","0","0","0","9","NA","0","9","NA","0","NA","NA","NA","0","NA","NA","NA","NA","NA","0","NA","9","0","9","0","0","0","0","9","0","0","0","NA","Sun Oct 15 16:24:08 2023","50","The main experiment item","yes","CogPsy_Assignment_With_Instruction.osexp","/Users/joesidley/Desktop","no","mono","no","18","no","white","no","Student","yes","768","/Users/joesidley/Desktop/subject-10.csv","real","Melodramatic Milgram","4.0.5","genuine","right","space","NA","NA","space","NA","right","1698.1608650003182","3023.7627120004618","NA","NA","15902.018347000194","NA","1698.1608650003182","NA","NA","2","real_20","1024","2","48000","-16","experiment","10","even","41333.129488999475","NA","23884.032541000124","54590.05699699992","NA","37642.338625000775","7907.6753450008255","119781.6212079997","NA","NA","120286.43607900085","NA","7939.765056000397","NA","NA","NA","NA","NA","NA","NA","NA","NA","47449.93421900108","NA","120286.72328200082","60060.99121800071","119772.38529500028","NA","60059.26237800122","NA","47448.02506000087","121986.36702300064","NA","41331.25984599974","NA","NA","New experiment","6","55295.05040699769","10","1024"
"63","NA","63","5145","5145","#3d3846","psycho","NA","1","undefined","undefined","1","right","0","0","0","0","0","0","0","10","NA","0","10","NA","0","NA","NA","NA","0","NA","NA","NA","NA","NA","0","NA","10","0","10","0","0","0","0","10","0","0","0","NA","Sun Oct 15 16:24:08 2023","50","The main experiment item","yes","CogPsy_Assignment_With_Instruction.osexp","/Users/joesidley/Desktop","no","mono","no","18","no","white","no","Student","yes","768","/Users/joesidley/Desktop/subject-10.csv","real","Melodramatic Milgram","4.0.5","photo_2","right","space","NA","NA","space","NA","right","1309.0644470012194","3023.7627120004618","NA","NA","15902.018347000194","NA","1309.0644470012194","NA","NA","2","real_50","1024","2","48000","-16","experiment","10","even","41333.129488999475","NA","23884.032541000124","54590.05699699992","NA","37642.338625000775","7907.6753450008255","122144.68162199955","NA","NA","122649.06539600088","NA","7939.765056000397","NA","NA","NA","NA","NA","NA","NA","NA","NA","47449.93421900108","NA","122649.35378399969","60060.99121800071","122137.60351699966","NA","60059.26237800122","NA","47448.02506000087","123961.04581300096","NA","41331.25984599974","NA","NA","New experiment","7","56604.11485399891","11","1024"
"66","NA","66","5803","5803","#3d3846","psycho","NA","1","undefined","undefined","1","left","0","0","0","0","0","0","0","11","NA","0","11","NA","0","NA","NA","NA","0","NA","NA","NA","NA","NA","0","NA","11","0","11","0","0","0","0","11","0","0","0","NA","Sun Oct 15 16:24:08 2023","20","The main experiment item","yes","CogPsy_Assignment_With_Instruction.osexp","/Users/joesidley/Desktop","no","mono","no","18","no","white","no","Student","yes","768","/Users/joesidley/Desktop/subject-10.csv","fake","Melodramatic Milgram","4.0.5","BadInk","left","space","NA","NA","space","NA","left","13037.894265000417","3023.7627120004618","NA","NA","15902.018347000194","NA","13037.894265000417","NA","NA","2","fake_20","1024","2","48000","-16","experiment","10","even","41333.129488999475","NA","23884.032541000124","54590.05699699992","NA","37642.338625000775","7907.6753450008255","124320.71839000128","NA","NA","124826.01895500011","NA","7939.765056000397","NA","NA","NA","NA","NA","NA","NA","NA","NA","47449.93421900108","NA","124826.34052600042","60060.99121800071","124297.97561300074","NA","60059.26237800122","NA","47448.02506000087","137868.74744000123","NA","41331.25984599974","NA","NA","New experiment","8","69642.00911899933","12","1024"
"69","NA","69","5563","5563","#3d3846","psycho","NA","1","undefined","undefined","1","right","0","0","0","0","0","0","0","12","NA","0","12","NA","0","NA","NA","NA","0","NA","NA","NA","NA","NA","0","NA","12","0","12","0","0","0","0","12","0","0","0","NA","Sun Oct 15 16:24:08 2023","50","The main experiment item","yes","CogPsy_Assignment_With_Instruction.osexp","/Users/joesidley/Desktop","no","mono","no","18","no","white","no","Student","yes","768","/Users/joesidley/Desktop/subject-10.csv","real","Melodramatic Milgram","4.0.5","photo_2","right","space","NA","NA","space","NA","right","2689.3762489999062","3023.7627120004618","NA","NA","15902.018347000194","NA","2689.3762489999062","NA","NA","2","real_50","1024","2","48000","-16","experiment","10","even","41333.129488999475","NA","23884.032541000124","54590.05699699992","NA","37642.338625000775","7907.6753450008255","138268.28081799977","NA","NA","138773.8856270007","NA","7939.765056000397","NA","NA","NA","NA","NA","NA","NA","NA","NA","47449.93421900108","NA","138774.27175699995","60060.99121800071","138234.47460100031","NA","60059.26237800122","NA","47448.02506000087","141465.0386860012","NA","41331.25984599974","NA","NA","New experiment","9","72331.38536799923","13","1024"
"71","NA","71","5391","5391","#3d3846","psycho","NA","1","undefined","undefined","1","right","0","0","0","0","0","0","0","13","NA","0","13","NA","0","NA","NA","NA","0","NA","NA","NA","NA","NA","0","NA","13","0","13","0","0","0","0","13","0","0","0","NA","Sun Oct 15 16:24:08 2023","50","The main experiment item","yes","CogPsy_Assignment_With_Instruction.osexp","/Users/joesidley/Desktop","no","mono","no","18","no","white","no","Student","yes","768","/Users/joesidley/Desktop/subject-10.csv","real","Melodramatic Milgram","4.0.5","photo","right","space","NA","NA","space","NA","right","3156.3315610001446","3023.7627120004618","NA","NA","15902.018347000194","NA","3156.3315610001446","NA","NA","2","real_50","1024","2","48000","-16","experiment","10","even","41333.129488999475","NA","23884.032541000124","54590.05699699992","NA","37642.338625000775","7907.6753450008255","141639.93835000112","NA","NA","142257.3969370005","NA","7939.765056000397","NA","NA","NA","NA","NA","NA","NA","NA","NA","47449.93421900108","NA","142258.08753199998","60060.99121800071","141633.78332700086","NA","60059.26237800122","NA","47448.02506000087","145415.8991100012","NA","41331.25984599974","NA","NA","New experiment","10","75487.71692899938","14","1024"
"73","NA","73","5341","5341","#3d3846","psycho","NA","1","undefined","undefined","1","left","0","0","0","0","0","0","0","14","NA","0","14","NA","0","NA","NA","NA","0","NA","NA","NA","NA","NA","0","NA","14","0","14","0","0","0","0","14","0","0","0","NA","Sun Oct 15 16:24:08 2023","20","The main experiment item","yes","CogPsy_Assignment_With_Instruction.osexp","/Users/joesidley/Desktop","no","mono","no","18","no","white","no","Student","yes","768","/Users/joesidley/Desktop/subject-10.csv","fake","Melodramatic Milgram","4.0.5","NoNumOnThread_BlurryWatermark","left","space","NA","NA","space","NA","left","4635.332641000772","3023.7627120004618","NA","NA","15902.018347000194","NA","4635.332641000772","NA","NA","2","fake_20","1024","2","48000","-16","experiment","10","even","41333.129488999475","NA","23884.032541000124","54590.05699699992","NA","37642.338625000775","7907.6753450008255","145630.06028100062","NA","NA","146135.67622499977","NA","7939.765056000397","NA","NA","NA","NA","NA","NA","NA","NA","NA","47449.93421900108","NA","146136.18537799994","60060.99121800071","145623.22958799996","NA","60059.26237800122","NA","47448.02506000087","150799.33401900053","NA","41331.25984599974","NA","NA","New experiment","11","80123.04957000015","15","1024"
"68","NA","68","5195","5195","#3d3846","psycho","NA","0","undefined","undefined","0","right","0","0","0","0","0","0","0","15","NA","0","15","NA","0","NA","NA","NA","0","NA","NA","NA","NA","NA","0","NA","15","0","15","0","0","0","0","15","0","0","0","NA","Sun Oct 15 16:24:08 2023","20","The main experiment item","yes","CogPsy_Assignment_With_Instruction.osexp","/Users/joesidley/Desktop","no","mono","no","18","no","white","no","Student","yes","768","/Users/joesidley/Desktop/subject-10.csv","real","Melodramatic Milgram","4.0.5","photo","left","space","NA","NA","space","NA","left","3004.10235300113","3023.7627120004618","NA","NA","15902.018347000194","NA","3004.10235300113","NA","NA","2","real_20","1024","2","48000","-16","experiment","10","even","41333.129488999475","NA","23884.032541000124","54590.05699699992","NA","37642.338625000775","7907.6753450008255","151175.1652540006","NA","NA","151689.13794000036","NA","7939.765056000397","NA","NA","NA","NA","NA","NA","NA","NA","NA","47449.93421900108","NA","151689.6782189997","60060.99121800071","151157.84452200023","NA","60059.26237800122","NA","47448.02506000087","154695.48697400023","NA","41331.25984599974","NA","NA","New experiment","11","83127.15192300128","16","1024"
"64","NA","64","5062","5062","#3d3846","psycho","NA","0","undefined","undefined","0","left","0","0","0","0","0","0","0","16","NA","0","16","NA","0","NA","NA","NA","0","NA","NA","NA","NA","NA","0","NA","16","0","16","0","0","0","0","16","0","0","0","NA","Sun Oct 15 16:24:08 2023","20","The main experiment item","yes","CogPsy_Assignment_With_Instruction.osexp","/Users/joesidley/Desktop","no","mono","no","18","no","white","no","Student","yes","768","/Users/joesidley/Desktop/subject-10.csv","fake","Melodramatic Milgram","4.0.5","BadInk2","right","space","NA","NA","space","NA","right","2932.591191998683","3023.7627120004618","NA","NA","15902.018347000194","NA","2932.591191998683","NA","NA","2","fake_20","1024","2","48000","-16","experiment","10","even","41333.129488999475","NA","23884.032541000124","54590.05699699992","NA","37642.338625000775","7907.6753450008255","154880.79345400003","NA","NA","155386.3712090006","NA","7939.765056000397","NA","NA","NA","NA","NA","NA","NA","NA","NA","47449.93421900108","NA","155386.89870100096","60060.99121800071","154873.11545900046","NA","60059.26237800122","NA","47448.02506000087","158320.957381","NA","41331.25984599974","NA","NA","New experiment","11","86059.74311499996","17","1024"
"61","NA","61","4879","4879","#3d3846","psycho","NA","0","undefined","undefined","0","left","0","0","0","0","0","0","0","17","NA","0","17","NA","0","NA","NA","NA","0","NA","NA","NA","NA","NA","0","NA","17","0","17","0","0","0","0","17","0","0","0","NA","Sun Oct 15 16:24:08 2023","50","The main experiment item","yes","CogPsy_Assignment_With_Instruction.osexp","/Users/joesidley/Desktop","no","mono","no","18","no","white","no","Student","yes","768","/Users/joesidley/Desktop/subject-10.csv","fake","Melodramatic Milgram","4.0.5","bottom_left","right","space","NA","NA","space","NA","right","1768.4940849994891","3023.7627120004618","NA","NA","15902.018347000194","NA","1768.4940849994891","NA","NA","2","fake_1_50","1024","2","48000","-16","experiment","10","even","41333.129488999475","NA","23884.032541000124","54590.05699699992","NA","37642.338625000775","7907.6753450008255","158452.21755000058","NA","NA","158957.63119299954","NA","7939.765056000397","NA","NA","NA","NA","NA","NA","NA","NA","NA","47449.93421900108","NA","158957.96793500084","60060.99121800071","158446.43339600042","NA","60059.26237800122","NA","47448.02506000087","160727.74878800008","NA","41331.25984599974","NA","NA","New experiment","11","87828.23719999945","18","1024"
"57","NA","57","4775","4775","#3d3846","psycho","NA","0","undefined","undefined","0","left","0","0","0","0","0","0","0","18","NA","0","18","NA","0","NA","NA","NA","0","NA","NA","NA","NA","NA","0","NA","18","0","18","0","0","0","0","18","0","0","0","NA","Sun Oct 15 16:24:08 2023","20","The main experiment item","yes","CogPsy_Assignment_With_Instruction.osexp","/Users/joesidley/Desktop","no","mono","no","18","no","white","no","Student","yes","768","/Users/joesidley/Desktop/subject-10.csv","fake","Melodramatic Milgram","4.0.5","bottom_left","right","space","NA","NA","space","NA","right","2898.755635998881","3023.7627120004618","NA","NA","15902.018347000194","NA","2898.755635998881","NA","NA","2","fake_1_20","1024","2","48000","-16","experiment","10","even","41333.129488999475","NA","23884.032541000124","54590.05699699992","NA","37642.338625000775","7907.6753450008255","160864.60106000048","NA","NA","161369.38186100087","NA","7939.765056000397","NA","NA","NA","NA","NA","NA","NA","NA","NA","47449.93421900108","NA","161369.7048000013","60060.99121800071","160858.46276700066","NA","60059.26237800122","NA","47448.02506000087","164269.8531490005","NA","41331.25984599974","NA","NA","New experiment","11","90726.99283599833","19","1024"
"60","NA","60","4685","4685","#3d3846","psycho","NA","1","undefined","undefined","1","left","0","0","0","0","0","0","0","19","NA","0","19","NA","0","NA","NA","NA","0","NA","NA","NA","NA","NA","0","NA","19","0","19","0","0","0","0","19","0","0","0","NA","Sun Oct 15 16:24:08 2023","20","The main experiment item","yes","CogPsy_Assignment_With_Instruction.osexp","/Users/joesidley/Desktop","no","mono","no","18","no","white","no","Student","yes","768","/Users/joesidley/Desktop/subject-10.csv","fake","Melodramatic Milgram","4.0.5","silver_strip","left","space","NA","NA","space","NA","left","2976.059917000355","3023.7627120004618","NA","NA","15902.018347000194","NA","2976.059917000355","NA","NA","2","fake_2_20","1024","2","48000","-16","experiment","10","even","41333.129488999475","NA","23884.032541000124","54590.05699699992","NA","37642.338625000775","7907.6753450008255","164410.29182800048","NA","NA","164915.35200100043","NA","7939.765056000397","NA","NA","NA","NA","NA","NA","NA","NA","NA","47449.93421900108","NA","164915.88532800053","60060.99121800071","164404.2827009998","NA","60059.26237800122","NA","47448.02506000087","167893.75932500116","NA","41331.25984599974","NA","NA","New experiment","12","93703.05275299869","20","1024"
"57","NA","57","5055","5055","#3d3846","psycho","NA","0","undefined","undefined","0","right","0","0","0","0","0","0","0","20","NA","0","20","NA","0","NA","NA","NA","0","NA","NA","NA","NA","NA","0","NA","20","0","20","0","0","0","0","20","0","0","0","NA","Sun Oct 15 16:24:08 2023","20","The main experiment item","yes","CogPsy_Assignment_With_Instruction.osexp","/Users/joesidley/Desktop","no","mono","no","18","no","white","no","Student","yes","768","/Users/joesidley/Desktop/subject-10.csv","real","Melodramatic Milgram","4.0.5","photo","left","space","NA","NA","space","NA","left","12469.80712000007","3023.7627120004618","NA","NA","15902.018347000194","NA","12469.80712000007","NA","NA","2","real_20","1024","2","48000","-16","experiment","10","even","41333.129488999475","NA","23884.032541000124","54590.05699699992","NA","37642.338625000775","7907.6753450008255","168073.57452399994","NA","NA","168578.8117709999","NA","7939.765056000397","NA","NA","NA","NA","NA","NA","NA","NA","NA","47449.93421900108","NA","168579.1438670003","60060.99121800071","168068.05229900056","NA","60059.26237800122","NA","47448.02506000087","181050.3998990007","NA","41331.25984599974","NA","NA","New experiment","12","106172.85987299876","21","1024"
"59","NA","59","4880","4880","#3d3846","psycho","NA","1","undefined","undefined","1","right","0","0","0","0","0","0","0","21","NA","0","21","NA","0","NA","NA","NA","0","NA","NA","NA","NA","NA","0","NA","21","0","21","0","0","0","0","21","0","0","0","NA","Sun Oct 15 16:24:08 2023","50","The main experiment item","yes","CogPsy_Assignment_With_Instruction.osexp","/Users/joesidley/Desktop","no","mono","no","18","no","white","no","Student","yes","768","/Users/joesidley/Desktop/subject-10.csv","real","Melodramatic Milgram","4.0.5","photo","right","space","NA","NA","space","NA","right","1203.3270359988674","3023.7627120004618","NA","NA","15902.018347000194","NA","1203.3270359988674","NA","NA","2","real_50","1024","2","48000","-16","experiment","10","even","41333.129488999475","NA","23884.032541000124","54590.05699699992","NA","37642.338625000775","7907.6753450008255","181213.91503999985","NA","NA","181719.0750660011","NA","7939.765056000397","NA","NA","NA","NA","NA","NA","NA","NA","NA","47449.93421900108","NA","181719.4055180007","60060.99121800071","181204.76084300026","NA","60059.26237800122","NA","47448.02506000087","182924.05381200113","NA","41331.25984599974","NA","NA","New experiment","13","107376.18690899762","22","1024"
"56","NA","56","5042","5042","#3d3846","psycho","NA","0","undefined","undefined","0","left","0","0","0","0","0","0","0","22","NA","0","22","NA","0","NA","NA","NA","0","NA","NA","NA","NA","NA","0","NA","22","0","22","0","0","0","0","22","0","0","0","NA","Sun Oct 15 16:24:08 2023","50","The main experiment item","yes","CogPsy_Assignment_With_Instruction.osexp","/Users/joesidley/Desktop","no","mono","no","18","no","white","no","Student","yes","768","/Users/joesidley/Desktop/subject-10.csv","fake","Melodramatic Milgram","4.0.5","BadInk","right","space","NA","NA","space","NA","right","8592.715431999735","3023.7627120004618","NA","NA","15902.018347000194","NA","8592.715431999735","NA","NA","2","fake_2_50","1024","2","48000","-16","experiment","10","even","41333.129488999475","NA","23884.032541000124","54590.05699699992","NA","37642.338625000775","7907.6753450008255","183092.83779600082","NA","NA","183597.57367400016","NA","7939.765056000397","NA","NA","NA","NA","NA","NA","NA","NA","NA","47449.93421900108","NA","183597.92527799984","60060.99121800071","183086.6330509998","NA","60059.26237800122","NA","47448.02506000087","192192.4061610007","NA","41331.25984599974","NA","NA","New experiment","13","115968.90234099736","23","1024"
"58","NA","58","4941","4941","#3d3846","psycho","NA","1","undefined","undefined","1","left","0","0","0","0","0","0","0","23","NA","0","23","NA","0","NA","NA","NA","0","NA","NA","NA","NA","NA","0","NA","23","0","23","0","0","0","0","23","0","0","0","NA","Sun Oct 15 16:24:08 2023","20","The main experiment item","yes","CogPsy_Assignment_With_Instruction.osexp","/Users/joesidley/Desktop","no","mono","no","18","no","white","no","Student","yes","768","/Users/joesidley/Desktop/subject-10.csv","fake","Melodramatic Milgram","4.0.5","DullHologram","left","space","NA","NA","space","NA","left","2635.031259998854","3023.7627120004618","NA","NA","15902.018347000194","NA","2635.031259998854","NA","NA","2","fake_20","1024","2","48000","-16","experiment","10","even","41333.129488999475","NA","23884.032541000124","54590.05699699992","NA","37642.338625000775","7907.6753450008255","192355.47699200106","NA","NA","192860.84763899999","NA","7939.765056000397","NA","NA","NA","NA","NA","NA","NA","NA","NA","47449.93421900108","NA","192861.21342700062","60060.99121800071","192347.0587539996","NA","60059.26237800122","NA","47448.02506000087","195497.6912350012","NA","41331.25984599974","NA","NA","New experiment","14","118603.93360099621","24","1024"
"56","NA","56","4800","4800","#3d3846","psycho","NA","0","undefined","undefined","0","left","0","0","0","0","0","0","0","24","NA","0","24","NA","0","NA","NA","NA","0","NA","NA","NA","NA","NA","0","NA","24","0","24","0","0","0","0","24","0","0","0","NA","Sun Oct 15 16:24:08 2023","50","The main experiment item","yes","CogPsy_Assignment_With_Instruction.osexp","/Users/joesidley/Desktop","no","mono","no","18","no","white","no","Student","yes","768","/Users/joesidley/Desktop/subject-10.csv","fake","Melodramatic Milgram","4.0.5","PurpleDenomination3","right","space","NA","NA","space","NA","right","1418.1437489987875","3023.7627120004618","NA","NA","15902.018347000194","NA","1418.1437489987875","NA","NA","2","fake_2_50","1024","2","48000","-16","experiment","10","even","41333.129488999475","NA","23884.032541000124","54590.05699699992","NA","37642.338625000775","7907.6753450008255","195669.27229000066","NA","NA","196175.50005799968","NA","7939.765056000397","NA","NA","NA","NA","NA","NA","NA","NA","NA","47449.93421900108","NA","196175.84682500092","60060.99121800071","195662.99949700077","NA","60059.26237800122","NA","47448.02506000087","197595.41117000117","NA","41331.25984599974","NA","NA","New experiment","14","120022.077349995","25","1024"
"53","NA","53","4679","4679","#3d3846","psycho","NA","0","undefined","undefined","0","left","0","0","0","0","0","0","0","25","NA","0","25","NA","0","NA","NA","NA","0","NA","NA","NA","NA","NA","0","NA","25","0","25","0","0","0","0","25","0","0","0","NA","Sun Oct 15 16:24:08 2023","50","The main experiment item","yes","CogPsy_Assignment_With_Instruction.osexp","/Users/joesidley/Desktop","no","mono","no","18","no","white","no","Student","yes","768","/Users/joesidley/Desktop/subject-10.csv","fake","Melodramatic Milgram","4.0.5","PurpleDenomination","right","space","NA","NA","space","NA","right","1656.4578960005601","3023.7627120004618","NA","NA","15902.018347000194","NA","1656.4578960005601","NA","NA","2","fake_2_50","1024","2","48000","-16","experiment","10","even","41333.129488999475","NA","23884.032541000124","54590.05699699992","NA","37642.338625000775","7907.6753450008255","197744.9284409995","NA","NA","198249.05955100077","NA","7939.765056000397","NA","NA","NA","NA","NA","NA","NA","NA","NA","47449.93421900108","NA","198249.38245100022","60060.99121800071","197739.055217","NA","60059.26237800122","NA","47448.02506000087","199907.3231679995","NA","41331.25984599974","NA","NA","New experiment","14","121678.53524599556","26","1024"
"51","NA","51","4642","4642","#3d3846","psycho","NA","0","undefined","undefined","0","left","0","0","0","0","0","0","0","26","NA","0","26","NA","0","NA","NA","NA","0","NA","NA","NA","NA","NA","0","NA","26","0","26","0","0","0","0","26","0","0","0","NA","Sun Oct 15 16:24:08 2023","50","The main experiment item","yes","CogPsy_Assignment_With_Instruction.osexp","/Users/joesidley/Desktop","no","mono","no","18","no","white","no","Student","yes","768","/Users/joesidley/Desktop/subject-10.csv","fake","Melodramatic Milgram","4.0.5","PurpleDenomination3","right","space","NA","NA","space","NA","right","3661.526531001058","3023.7627120004618","NA","NA","15902.018347000194","NA","3661.526531001058","NA","NA","2","fake_2_50","1024","2","48000","-16","experiment","10","even","41333.129488999475","NA","23884.032541000124","54590.05699699992","NA","37642.338625000775","7907.6753450008255","200058.96412100084","NA","NA","200563.6340809997","NA","7939.765056000397","NA","NA","NA","NA","NA","NA","NA","NA","NA","47449.93421900108","NA","200563.9988160001","60060.99121800071","200053.22675000026","NA","60059.26237800122","NA","47448.02506000087","204227.08179900108","NA","41331.25984599974","NA","NA","New experiment","14","125340.06177699662","27","1024"
"53","NA","53","4612","4612","#3d3846","psycho","NA","1","undefined","undefined","1","right","0","0","0","0","0","0","0","27","NA","0","27","NA","0","NA","NA","NA","0","NA","NA","NA","NA","NA","0","NA","27","0","27","0","0","0","0","27","0","0","0","NA","Sun Oct 15 16:24:08 2023","20","The main experiment item","yes","CogPsy_Assignment_With_Instruction.osexp","/Users/joesidley/Desktop","no","mono","no","18","no","white","no","Student","yes","768","/Users/joesidley/Desktop/subject-10.csv","real","Melodramatic Milgram","4.0.5","genuine","right","space","NA","NA","space","NA","right","3809.827261999075","3023.7627120004618","NA","NA","15902.018347000194","NA","3809.827261999075","NA","NA","2","real_20","1024","2","48000","-16","experiment","10","even","41333.129488999475","NA","23884.032541000124","54590.05699699992","NA","37642.338625000775","7907.6753450008255","204364.15789900091","NA","NA","204869.06219699996","NA","7939.765056000397","NA","NA","NA","NA","NA","NA","NA","NA","NA","47449.93421900108","NA","204869.41186700098","60060.99121800071","204358.02330300066","NA","60059.26237800122","NA","47448.02506000087","208680.7023040001","NA","41331.25984599974","NA","NA","New experiment","15","129149.8890389957","28","1024"
"51","NA","51","4508","4508","#3d3846","psycho","NA","0","undefined","undefined","0","left","0","0","0","0","0","0","0","28","NA","0","28","NA","0","NA","NA","NA","0","NA","NA","NA","NA","NA","0","NA","28","0","28","0","0","0","0","28","0","0","0","NA","Sun Oct 15 16:24:08 2023","50","The main experiment item","yes","CogPsy_Assignment_With_Instruction.osexp","/Users/joesidley/Desktop","no","mono","no","18","no","white","no","Student","yes","768","/Users/joesidley/Desktop/subject-10.csv","fake","Melodramatic Milgram","4.0.5","PurpleDenomination2","right","space","NA","NA","space","NA","right","1591.0865179994435","3023.7627120004618","NA","NA","15902.018347000194","NA","1591.0865179994435","NA","NA","2","fake_2_50","1024","2","48000","-16","experiment","10","even","41333.129488999475","NA","23884.032541000124","54590.05699699992","NA","37642.338625000775","7907.6753450008255","208837.75324700036","NA","NA","209342.85500500118","NA","7939.765056000397","NA","NA","NA","NA","NA","NA","NA","NA","NA","47449.93421900108","NA","209343.18200900088","60060.99121800071","208831.95540099952","NA","60059.26237800122","NA","47448.02506000087","210935.5911470011","NA","41331.25984599974","NA","NA","New experiment","15","130740.97555699514","29","1024"
"50","NA","50","4438","4438","#3d3846","psycho","NA","0","undefined","undefined","0","right","0","0","0","0","0","0","0","29","NA","0","29","NA","0","NA","NA","NA","0","NA","NA","NA","NA","NA","0","NA","29","0","29","0","0","0","0","29","0","0","0","NA","Sun Oct 15 16:24:08 2023","20","The main experiment item","yes","CogPsy_Assignment_With_Instruction.osexp","/Users/joesidley/Desktop","no","mono","no","18","no","white","no","Student","yes","768","/Users/joesidley/Desktop/subject-10.csv","real","Melodramatic Milgram","4.0.5","photo","left","space","NA","NA","space","NA","left","2414.9622059994726","3023.7627120004618","NA","NA","15902.018347000194","NA","2414.9622059994726","NA","NA","2","real_20","1024","2","48000","-16","experiment","10","even","41333.129488999475","NA","23884.032541000124","54590.05699699992","NA","37642.338625000775","7907.6753450008255","211114.22998899978","NA","NA","211621.5984110004","NA","7939.765056000397","NA","NA","NA","NA","NA","NA","NA","NA","NA","47449.93421900108","NA","211622.07737300015","60060.99121800071","211108.296280001","NA","60059.26237800122","NA","47448.02506000087","214038.42765300034","NA","41331.25984599974","NA","NA","New experiment","15","133155.9377629946","30","1024"
"51","NA","51","4320","4320","#3d3846","psycho","NA","1","undefined","undefined","1","right","0","0","0","0","0","0","0","30","NA","0","30","NA","0","NA","NA","NA","0","NA","NA","NA","NA","NA","0","NA","30","0","30","0","0","0","0","30","0","0","0","NA","Sun Oct 15 16:24:08 2023","50","The main experiment item","yes","CogPsy_Assignment_With_Instruction.osexp","/Users/joesidley/Desktop","no","mono","no","18","no","white","no","Student","yes","768","/Users/joesidley/Desktop/subject-10.csv","real","Melodramatic Milgram","4.0.5","photo_2","right","space","NA","NA","space","NA","right","794.6038959998987","3023.7627120004618","NA","NA","15902.018347000194","NA","794.6038959998987","NA","NA","2","real_50","1024","2","48000","-16","experiment","10","even","41333.129488999475","NA","23884.032541000124","54590.05699699992","NA","37642.338625000775","7907.6753450008255","214181.69026299985","NA","NA","214686.79664699995","NA","7939.765056000397","NA","NA","NA","NA","NA","NA","NA","NA","NA","47449.93421900108","NA","214687.20374300028","60060.99121800071","214175.88994000107","NA","60059.26237800122","NA","47448.02506000087","215484.97115800093","NA","41331.25984599974","NA","NA","New experiment","16","133950.5416589945","31","1024"
"53","NA","53","4332","4332","#3d3846","psycho","NA","1","undefined","undefined","1","right","0","0","0","0","0","0","0","31","NA","0","31","NA","0","NA","NA","NA","0","NA","NA","NA","NA","NA","0","NA","31","0","31","0","0","0","0","31","0","0","0","NA","Sun Oct 15 16:24:08 2023","20","The main experiment item","yes","CogPsy_Assignment_With_Instruction.osexp","/Users/joesidley/Desktop","no","mono","no","18","no","white","no","Student","yes","768","/Users/joesidley/Desktop/subject-10.csv","real","Melodramatic Milgram","4.0.5","genuine","right","space","NA","NA","space","NA","right","4702.169849000697","3023.7627120004618","NA","NA","15902.018347000194","NA","4702.169849000697","NA","NA","2","real_20","1024","2","48000","-16","experiment","10","even","41333.129488999475","NA","23884.032541000124","54590.05699699992","NA","37642.338625000775","7907.6753450008255","215657.61756800022","NA","NA","216163.98630699952","NA","7939.765056000397","NA","NA","NA","NA","NA","NA","NA","NA","NA","47449.93421900108","NA","216164.5156300001","60060.99121800071","215649.5921530004","NA","60059.26237800122","NA","47448.02506000087","220868.0687369997","NA","41331.25984599974","NA","NA","New experiment","17","138652.7115079952","32","1024"
"51","NA","51","4224","4224","#3d3846","psycho","NA","0","undefined","undefined","0","left","0","0","0","0","0","0","0","32","NA","0","32","NA","0","NA","NA","NA","0","NA","NA","NA","NA","NA","0","NA","32","0","32","0","0","0","0","32","0","0","0","NA","Sun Oct 15 16:24:08 2023","50","The main experiment item","yes","CogPsy_Assignment_With_Instruction.osexp","/Users/joesidley/Desktop","no","mono","no","18","no","white","no","Student","yes","768","/Users/joesidley/Desktop/subject-10.csv","fake","Melodramatic Milgram","4.0.5","PurpleDenomination","right","space","NA","NA","space","NA","right","739.6576780010946","3023.7627120004618","NA","NA","15902.018347000194","NA","739.6576780010946","NA","NA","2","fake_2_50","1024","2","48000","-16","experiment","10","even","41333.129488999475","NA","23884.032541000124","54590.05699699992","NA","37642.338625000775","7907.6753450008255","221007.68253900058","NA","NA","221512.83039800002","NA","7939.765056000397","NA","NA","NA","NA","NA","NA","NA","NA","NA","47449.93421900108","NA","221513.16115400003","60060.99121800071","221001.4521770008","NA","60059.26237800122","NA","47448.02506000087","222254.21226599975","NA","41331.25984599974","NA","NA","New experiment","17","139392.3691859963","33","1024"
"52","NA","52","4138","4138","#3d3846","psycho","NA","1","undefined","undefined","1","right","0","0","0","0","0","0","0","33","NA","0","33","NA","0","NA","NA","NA","0","NA","NA","NA","NA","NA","0","NA","33","0","33","0","0","0","0","33","0","0","0","NA","Sun Oct 15 16:24:08 2023","20","The main experiment item","yes","CogPsy_Assignment_With_Instruction.osexp","/Users/joesidley/Desktop","no","mono","no","18","no","white","no","Student","yes","768","/Users/joesidley/Desktop/subject-10.csv","real","Melodramatic Milgram","4.0.5","genuine","right","space","NA","NA","space","NA","right","1316.8937360005802","3023.7627120004618","NA","NA","15902.018347000194","NA","1316.8937360005802","NA","NA","2","real_20","1024","2","48000","-16","experiment","10","even","41333.129488999475","NA","23884.032541000124","54590.05699699992","NA","37642.338625000775","7907.6753450008255","222382.84702700004","NA","NA","222887.27923400074","NA","7939.765056000397","NA","NA","NA","NA","NA","NA","NA","NA","NA","47449.93421900108","NA","222887.64650700067","60060.99121800071","222376.45582000003","NA","60059.26237800122","NA","47448.02506000087","224206.0265270011","NA","41331.25984599974","NA","NA","New experiment","18","140709.26292199688","34","1024"
"51","NA","51","4071","4071","#3d3846","psycho","NA","0","undefined","undefined","0","left","0","0","0","0","0","0","0","34","NA","0","34","NA","0","NA","NA","NA","0","NA","NA","NA","NA","NA","0","NA","34","0","34","0","0","0","0","34","0","0","0","NA","Sun Oct 15 16:24:08 2023","20","The main experiment item","yes","CogPsy_Assignment_With_Instruction.osexp","/Users/joesidley/Desktop","no","mono","no","18","no","white","no","Student","yes","768","/Users/joesidley/Desktop/subject-10.csv","fake","Melodramatic Milgram","4.0.5","BadInk2","right","space","NA","NA","space","NA","right","1783.503118000226","3023.7627120004618","NA","NA","15902.018347000194","NA","1783.503118000226","NA","NA","2","fake_20","1024","2","48000","-16","experiment","10","even","41333.129488999475","NA","23884.032541000124","54590.05699699992","NA","37642.338625000775","7907.6753450008255","224363.0708969995","NA","NA","224867.60459700052","NA","7939.765056000397","NA","NA","NA","NA","NA","NA","NA","NA","NA","47449.93421900108","NA","224867.9037540005","60060.99121800071","224356.2569429996","NA","60059.26237800122","NA","47448.02506000087","226653.1115050002","NA","41331.25984599974","NA","NA","New experiment","18","142492.7660399971","35","1024"
"50","NA","50","3978","3978","#3d3846","psycho","NA","0","undefined","undefined","0","left","0","0","0","0","0","0","0","35","NA","0","35","NA","0","NA","NA","NA","0","NA","NA","NA","NA","NA","0","NA","35","0","35","0","0","0","0","35","0","0","0","NA","Sun Oct 15 16:24:08 2023","50","The main experiment item","yes","CogPsy_Assignment_With_Instruction.osexp","/Users/joesidley/Desktop","no","mono","no","18","no","white","no","Student","yes","768","/Users/joesidley/Desktop/subject-10.csv","fake","Melodramatic Milgram","4.0.5","GreyDenomination","right","space","NA","NA","space","NA","right","716.3721910001477","3023.7627120004618","NA","NA","15902.018347000194","NA","716.3721910001477","NA","NA","2","fake_2_50","1024","2","48000","-16","experiment","10","even","41333.129488999475","NA","23884.032541000124","54590.05699699992","NA","37642.338625000775","7907.6753450008255","226816.80854200022","NA","NA","227322.7074589995","NA","7939.765056000397","NA","NA","NA","NA","NA","NA","NA","NA","NA","47449.93421900108","NA","227323.02968800103","60060.99121800071","226810.73601800017","NA","60059.26237800122","NA","47448.02506000087","228041.31773900008","NA","41331.25984599974","NA","NA","New experiment","18","143209.13823099725","36","1024"
"51","NA","51","3904","3904","#3d3846","psycho","NA","1","undefined","undefined","1","left","0","0","0","0","0","0","0","36","NA","0","36","NA","0","NA","NA","NA","0","NA","NA","NA","NA","NA","0","NA","36","0","36","0","0","0","0","36","0","0","0","NA","Sun Oct 15 16:24:08 2023","50","The main experiment item","yes","CogPsy_Assignment_With_Instruction.osexp","/Users/joesidley/Desktop","no","mono","no","18","no","white","no","Student","yes","768","/Users/joesidley/Desktop/subject-10.csv","fake","Melodramatic Milgram","4.0.5","NoNumOnThread_BlurryWatermark","left","space","NA","NA","space","NA","left","1256.3960509996687","3023.7627120004618","NA","NA","15902.018347000194","NA","1256.3960509996687","NA","NA","2","fake_2_50","1024","2","48000","-16","experiment","10","even","41333.129488999475","NA","23884.032541000124","54590.05699699992","NA","37642.338625000775","7907.6753450008255","228208.82373400126","NA","NA","228713.29193400015","NA","7939.765056000397","NA","NA","NA","NA","NA","NA","NA","NA","NA","47449.93421900108","NA","228713.62498700002","60060.99121800071","228203.1263730005","NA","60059.26237800122","NA","47448.02506000087","229971.34931800066","NA","41331.25984599974","NA","NA","New experiment","19","144465.53428199692","37","1024"
"50","NA","50","3827","3827","#3d3846","psycho","NA","0","undefined","undefined","0","left","0","0","0","0","0","0","0","37","NA","0","37","NA","0","NA","NA","NA","0","NA","NA","NA","NA","NA","0","NA","37","0","37","0","0","0","0","37","0","0","0","NA","Sun Oct 15 16:24:08 2023","20","The main experiment item","yes","CogPsy_Assignment_With_Instruction.osexp","/Users/joesidley/Desktop","no","mono","no","18","no","white","no","Student","yes","768","/Users/joesidley/Desktop/subject-10.csv","fake","Melodramatic Milgram","4.0.5","DullHologram2","right","space","NA","NA","space","NA","right","976.7520699988236","3023.7627120004618","NA","NA","15902.018347000194","NA","976.7520699988236","NA","NA","2","fake_20","1024","2","48000","-16","experiment","10","even","41333.129488999475","NA","23884.032541000124","54590.05699699992","NA","37642.338625000775","7907.6753450008255","230121.70978300128","NA","NA","230626.5913820007","NA","7939.765056000397","NA","NA","NA","NA","NA","NA","NA","NA","NA","47449.93421900108","NA","230626.942025001","60060.99121800071","230116.002666","NA","60059.26237800122","NA","47448.02506000087","231605.68703900027","NA","41331.25984599974","NA","NA","New experiment","19","145442.28635199575","38","1024"
"51","NA","51","3758","3758","#3d3846","psycho","NA","1","undefined","undefined","1","right","0","0","0","0","0","0","0","38","NA","0","38","NA","0","NA","NA","NA","0","NA","NA","NA","NA","NA","0","NA","38","0","38","0","0","0","0","38","0","0","0","NA","Sun Oct 15 16:24:08 2023","50","The main experiment item","yes","CogPsy_Assignment_With_Instruction.osexp","/Users/joesidley/Desktop","no","mono","no","18","no","white","no","Student","yes","768","/Users/joesidley/Desktop/subject-10.csv","real","Melodramatic Milgram","4.0.5","genuine","right","space","NA","NA","space","NA","right","1128.6166259997117","3023.7627120004618","NA","NA","15902.018347000194","NA","1128.6166259997117","NA","NA","2","real_20","1024","2","48000","-16","experiment","10","even","41333.129488999475","NA","23884.032541000124","54590.05699699992","NA","37642.338625000775","7907.6753450008255","231737.93034000118","NA","NA","232242.64071300058","NA","7939.765056000397","NA","NA","NA","NA","NA","NA","NA","NA","NA","47449.93421900108","NA","232243.22229500103","60060.99121800071","231732.04548000102","NA","60059.26237800122","NA","47448.02506000087","233373.42243999956","NA","41331.25984599974","NA","NA","New experiment","20","146570.90297799546","39","1024"
"52","NA","52","3713","3713","#3d3846","psycho","NA","1","undefined","undefined","1","left","0","0","0","0","0","0","0","39","NA","0","39","NA","0","NA","NA","NA","0","NA","NA","NA","NA","NA","0","NA","39","0","39","0","0","0","0","39","0","0","0","NA","Sun Oct 15 16:24:08 2023","20","The main experiment item","yes","CogPsy_Assignment_With_Instruction.osexp","/Users/joesidley/Desktop","no","mono","no","18","no","white","no","Student","yes","768","/Users/joesidley/Desktop/subject-10.csv","fake","Melodramatic Milgram","4.0.5","BadInk","left","space","NA","NA","space","NA","left","1956.376013999019","3023.7627120004618","NA","NA","15902.018347000194","NA","1956.376013999019","NA","NA","2","fake_20","1024","2","48000","-16","experiment","10","even","41333.129488999475","NA","23884.032541000124","54590.05699699992","NA","37642.338625000775","7907.6753450008255","233532.4715330007","NA","NA","234036.93275300064","NA","7939.765056000397","NA","NA","NA","NA","NA","NA","NA","NA","NA","47449.93421900108","NA","234037.280251001","60060.99121800071","233526.8010210002","NA","60059.26237800122","NA","47448.02506000087","235995.24994199965","NA","41331.25984599974","NA","NA","New experiment","21","148527.27899199448","40","1024"
"51","NA","51","3691","3691","#3d3846","psycho","NA","0","undefined","undefined","0","right","0","0","0","0","0","0","0","40","NA","0","40","NA","0","NA","NA","NA","0","NA","NA","NA","NA","NA","0","NA","40","0","40","0","0","0","0","40","0","0","0","NA","Sun Oct 15 16:24:08 2023","20","The main experiment item","yes","CogPsy_Assignment_With_Instruction.osexp","/Users/joesidley/Desktop","no","mono","no","18","no","white","no","Student","yes","768","/Users/joesidley/Desktop/subject-10.csv","real","Melodramatic Milgram","4.0.5","photo","left","space","NA","NA","space","NA","left","2828.743862000905","3023.7627120004618","NA","NA","15902.018347000194","NA","2828.743862000905","NA","NA","2","real_20","1024","2","48000","-16","experiment","10","even","41333.129488999475","NA","23884.032541000124","54590.05699699992","NA","37642.338625000775","7907.6753450008255","236175.8282310002","NA","NA","236681.02356300005","NA","7939.765056000397","NA","NA","NA","NA","NA","NA","NA","NA","NA","47449.93421900108","NA","236681.37308800034","60060.99121800071","236168.63011700116","NA","60059.26237800122","NA","47448.02506000087","239511.71454500034","NA","41331.25984599974","NA","NA","New experiment","21","151356.0228539954","41","1024"
"50","NA","50","3624","3624","#3d3846","psycho","NA","0","undefined","undefined","0","left","0","0","0","0","0","0","0","41","NA","0","41","NA","0","NA","NA","NA","0","NA","NA","NA","NA","NA","0","NA","41","0","41","0","0","0","0","41","0","0","0","NA","Sun Oct 15 16:24:08 2023","20","The main experiment item","yes","CogPsy_Assignment_With_Instruction.osexp","/Users/joesidley/Desktop","no","mono","no","18","no","white","no","Student","yes","768","/Users/joesidley/Desktop/subject-10.csv","fake","Melodramatic Milgram","4.0.5","DullHologram","right","space","NA","NA","space","NA","right","890.6199369993992","3023.7627120004618","NA","NA","15902.018347000194","NA","890.6199369993992","NA","NA","2","fake_20","1024","2","48000","-16","experiment","10","even","41333.129488999475","NA","23884.032541000124","54590.05699699992","NA","37642.338625000775","7907.6753450008255","239663.4032359998","NA","NA","240167.9931060007","NA","7939.765056000397","NA","NA","NA","NA","NA","NA","NA","NA","NA","47449.93421900108","NA","240168.3351410011","60060.99121800071","239656.5174919997","NA","60059.26237800122","NA","47448.02506000087","241060.40318600024","NA","41331.25984599974","NA","NA","New experiment","21","152246.6427909948","42","1024"
"48","NA","48","3557","3557","#3d3846","psycho","NA","0","undefined","undefined","0","left","0","0","0","0","0","0","0","42","NA","0","42","NA","0","NA","NA","NA","0","NA","NA","NA","NA","NA","0","NA","42","0","42","0","0","0","0","42","0","0","0","NA","Sun Oct 15 16:24:08 2023","20","The main experiment item","yes","CogPsy_Assignment_With_Instruction.osexp","/Users/joesidley/Desktop","no","mono","no","18","no","white","no","Student","yes","768","/Users/joesidley/Desktop/subject-10.csv","fake","Melodramatic Milgram","4.0.5","PurpleDenomination","right","space","NA","NA","space","NA","right","741.4532189996098","3023.7627120004618","NA","NA","15902.018347000194","NA","741.4532189996098","NA","NA","2","fake_20","1024","2","48000","-16","experiment","10","even","41333.129488999475","NA","23884.032541000124","54590.05699699992","NA","37642.338625000775","7907.6753450008255","241219.51434600123","NA","NA","241724.99348400015","NA","7939.765056000397","NA","NA","NA","NA","NA","NA","NA","NA","NA","47449.93421900108","NA","241725.3286720006","60060.99121800071","241213.4775739996","NA","60059.26237800122","NA","47448.02506000087","242468.39348899992","NA","41331.25984599974","NA","NA","New experiment","21","152988.09600999442","43","1024"
"47","NA","47","3519","3519","#3d3846","psycho","NA","0","undefined","undefined","0","left","0","0","0","0","0","0","0","43","NA","0","43","NA","0","NA","NA","NA","0","NA","NA","NA","NA","NA","0","NA","43","0","43","0","0","0","0","43","0","0","0","NA","Sun Oct 15 16:24:08 2023","20","The main experiment item","yes","CogPsy_Assignment_With_Instruction.osexp","/Users/joesidley/Desktop","no","mono","no","18","no","white","no","Student","yes","768","/Users/joesidley/Desktop/subject-10.csv","fake","Melodramatic Milgram","4.0.5","DullHologram2","right","space","NA","NA","space","NA","right","1852.9039189998002","3023.7627120004618","NA","NA","15902.018347000194","NA","1852.9039189998002","NA","NA","2","fake_20","1024","2","48000","-16","experiment","10","even","41333.129488999475","NA","23884.032541000124","54590.05699699992","NA","37642.338625000775","7907.6753450008255","242616.99994599985","NA","NA","243121.6876340004","NA","7939.765056000397","NA","NA","NA","NA","NA","NA","NA","NA","NA","47449.93421900108","NA","243122.03394400058","60060.99121800071","242610.31110400107","NA","60059.26237800122","NA","47448.02506000087","244976.5113560006","NA","41331.25984599974","NA","NA","New experiment","21","154840.9999289942","44","1024"
"46","NA","46","3534","3534","#3d3846","psycho","NA","0","undefined","undefined","0","left","0","0","0","0","0","0","0","44","NA","0","44","NA","0","NA","NA","NA","0","NA","NA","NA","NA","NA","0","NA","44","0","44","0","0","0","0","44","0","0","0","NA","Sun Oct 15 16:24:08 2023","20","The main experiment item","yes","CogPsy_Assignment_With_Instruction.osexp","/Users/joesidley/Desktop","no","mono","no","18","no","white","no","Student","yes","768","/Users/joesidley/Desktop/subject-10.csv","fake","Melodramatic Milgram","4.0.5","BrownDenomination","right","space","NA","NA","space","NA","right","4197.9711399999505","3023.7627120004618","NA","NA","15902.018347000194","NA","4197.9711399999505","NA","NA","2","fake_20","1024","2","48000","-16","experiment","10","even","41333.129488999475","NA","23884.032541000124","54590.05699699992","NA","37642.338625000775","7907.6753450008255","245132.84309700067","NA","NA","245639.9899549997","NA","7939.765056000397","NA","NA","NA","NA","NA","NA","NA","NA","NA","47449.93421900108","NA","245640.48622300106","60060.99121800071","245126.26813600038","NA","60059.26237800122","NA","47448.02506000087","249840.01692099991","NA","41331.25984599974","NA","NA","New experiment","21","159038.9710689941","45","1024"
"47","NA","47","3484","3484","#3d3846","psycho","NA","1","undefined","undefined","1","left","0","0","0","0","0","0","0","45","NA","0","45","NA","0","NA","NA","NA","0","NA","NA","NA","NA","NA","0","NA","45","0","45","0","0","0","0","45","0","0","0","NA","Sun Oct 15 16:24:08 2023","20","The main experiment item","yes","CogPsy_Assignment_With_Instruction.osexp","/Users/joesidley/Desktop","no","mono","no","18","no","white","no","Student","yes","768","/Users/joesidley/Desktop/subject-10.csv","fake","Melodramatic Milgram","4.0.5","NoNumOnThread_BlurryWatermark","left","space","NA","NA","space","NA","left","1238.6190329998499","3023.7627120004618","NA","NA","15902.018347000194","NA","1238.6190329998499","NA","NA","2","fake_20","1024","2","48000","-16","experiment","10","even","41333.129488999475","NA","23884.032541000124","54590.05699699992","NA","37642.338625000775","7907.6753450008255","250019.90464700066","NA","NA","250524.96895600052","NA","7939.765056000397","NA","NA","NA","NA","NA","NA","NA","NA","NA","47449.93421900108","NA","250525.3169330008","60060.99121800071","250012.85806000122","NA","60059.26237800122","NA","47448.02506000087","251765.36666500033","NA","41331.25984599974","NA","NA","New experiment","22","160277.59010199396","46","1024"
"48","NA","48","3450","3450","#3d3846","psycho","NA","1","undefined","undefined","1","left","0","0","0","0","0","0","0","46","NA","0","46","NA","0","NA","NA","NA","0","NA","NA","NA","NA","NA","0","NA","46","0","46","0","0","0","0","46","0","0","0","NA","Sun Oct 15 16:24:08 2023","50","The main experiment item","yes","CogPsy_Assignment_With_Instruction.osexp","/Users/joesidley/Desktop","no","mono","no","18","no","white","no","Student","yes","768","/Users/joesidley/Desktop/subject-10.csv","fake","Melodramatic Milgram","4.0.5","silver_strip","left","space","NA","NA","space","NA","left","1872.9491060003056","3023.7627120004618","NA","NA","15902.018347000194","NA","1872.9491060003056","NA","NA","2","fake_2_50","1024","2","48000","-16","experiment","10","even","41333.129488999475","NA","23884.032541000124","54590.05699699992","NA","37642.338625000775","7907.6753450008255","251901.30160100124","NA","NA","252406.05296300055","NA","7939.765056000397","NA","NA","NA","NA","NA","NA","NA","NA","NA","47449.93421900108","NA","252406.42079600002","60060.99121800071","251894.70963600068","NA","60059.26237800122","NA","47448.02506000087","254280.9402390012","NA","41331.25984599974","NA","NA","New experiment","23","162150.53920799427","47","1024"
"50","NA","50","3458","3458","#3d3846","psycho","NA","1","undefined","undefined","1","left","0","0","0","0","0","0","0","47","NA","0","47","NA","0","NA","NA","NA","0","NA","NA","NA","NA","NA","0","NA","47","0","47","0","0","0","0","47","0","0","0","NA","Sun Oct 15 16:24:08 2023","20","The main experiment item","yes","CogPsy_Assignment_With_Instruction.osexp","/Users/joesidley/Desktop","no","mono","no","18","no","white","no","Student","yes","768","/Users/joesidley/Desktop/subject-10.csv","fake","Melodramatic Milgram","4.0.5","silver_strip","left","space","NA","NA","space","NA","left","3836.9400470000983","3023.7627120004618","NA","NA","15902.018347000194","NA","3836.9400470000983","NA","NA","2","fake_2_20","1024","2","48000","-16","experiment","10","even","41333.129488999475","NA","23884.032541000124","54590.05699699992","NA","37642.338625000775","7907.6753450008255","254422.04876300093","NA","NA","254928.86454499967","NA","7939.765056000397","NA","NA","NA","NA","NA","NA","NA","NA","NA","47449.93421900108","NA","254929.22655800066","60060.99121800071","254415.382272","NA","60059.26237800122","NA","47448.02506000087","258767.87814099953","NA","41331.25984599974","NA","NA","New experiment","24","165987.4792549944","48","1024"
"48","NA","48","3473","3473","#3d3846","psycho","NA","0","undefined","undefined","0","left","0","0","0","0","0","0","0","48","NA","0","48","NA","0","NA","NA","NA","0","NA","NA","NA","NA","NA","0","NA","48","0","48","0","0","0","0","48","0","0","0","NA","Sun Oct 15 16:24:08 2023","50","The main experiment item","yes","CogPsy_Assignment_With_Instruction.osexp","/Users/joesidley/Desktop","no","mono","no","18","no","white","no","Student","yes","768","/Users/joesidley/Desktop/subject-10.csv","fake","Melodramatic Milgram","4.0.5","PurpleDenomination2","right","space","NA","NA","space","NA","right","4231.333390000131","3023.7627120004618","NA","NA","15902.018347000194","NA","4231.333390000131","NA","NA","2","fake_2_50","1024","2","48000","-16","experiment","10","even","41333.129488999475","NA","23884.032541000124","54590.05699699992","NA","37642.338625000775","7907.6753450008255","258914.61043600066","NA","NA","259419.56186900096","NA","7939.765056000397","NA","NA","NA","NA","NA","NA","NA","NA","NA","47449.93421900108","NA","259419.88859900084","60060.99121800071","258908.6606230012","NA","60059.26237800122","NA","47448.02506000087","263652.9171399998","NA","41331.25984599974","NA","NA","New experiment","24","170218.81264499456","49","1024"
"50","NA","50","3423","3423","#3d3846","psycho","NA","1","undefined","undefined","1","right","0","0","0","0","0","0","0","49","NA","0","49","NA","0","NA","NA","NA","0","NA","NA","NA","NA","NA","0","NA","49","0","49","0","0","0","0","49","0","0","0","NA","Sun Oct 15 16:24:08 2023","50","The main experiment item","yes","CogPsy_Assignment_With_Instruction.osexp","/Users/joesidley/Desktop","no","mono","no","18","no","white","no","Student","yes","768","/Users/joesidley/Desktop/subject-10.csv","real","Melodramatic Milgram","4.0.5","photo_2","right","space","NA","NA","space","NA","right","953.2692700013286","3023.7627120004618","NA","NA","15902.018347000194","NA","953.2692700013286","NA","NA","2","real_50","1024","2","48000","-16","experiment","10","even","41333.129488999475","NA","23884.032541000124","54590.05699699992","NA","37642.338625000775","7907.6753450008255","263791.6434939998","NA","NA","264296.7477189995","NA","7939.765056000397","NA","NA","NA","NA","NA","NA","NA","NA","NA","47449.93421900108","NA","264297.0910639997","60060.99121800071","263785.6957969998","NA","60059.26237800122","NA","47448.02506000087","265251.9380720005","NA","41331.25984599974","NA","NA","New experiment","25","171172.08191499588","50","1024"
"50","NA","50","3422","3422","#3d3846","psycho","NA","1","undefined","undefined","1","right","0","0","0","0","0","0","0","50","NA","0","50","NA","0","NA","NA","NA","0","NA","NA","NA","NA","NA","0","NA","50","0","50","0","0","0","0","50","0","0","0","NA","Sun Oct 15 16:24:08 2023","20","The main experiment item","yes","CogPsy_Assignment_With_Instruction.osexp","/Users/joesidley/Desktop","no","mono","no","18","no","white","no","Student","yes","768","/Users/joesidley/Desktop/subject-10.csv","real","Melodramatic Milgram","4.0.5","genuine","right","space","NA","NA","space","NA","right","3392.2389669987606","3023.7627120004618","NA","NA","15902.018347000194","NA","3392.2389669987606","NA","NA","2","real_20","1024","2","48000","-16","experiment","10","even","41333.129488999475","NA","23884.032541000124","54590.05699699992","NA","37642.338625000775","7907.6753450008255","265380.55611300113","NA","NA","265885.8384720006","NA","7939.765056000397","NA","NA","NA","NA","NA","NA","NA","NA","NA","47449.93421900108","NA","265886.1553300012","60060.99121800071","265374.46248299966","NA","60059.26237800122","NA","47448.02506000087","269279.89041699946","NA","41331.25984599974","NA","NA","New experiment","26","174564.32088199464","51","1024"
"51","NA","51","3381","3381","#3d3846","psycho","NA","1","undefined","undefined","1","right","0","0","0","0","0","0","0","51","NA","0","51","NA","0","NA","NA","NA","0","NA","NA","NA","NA","NA","0","NA","51","0","51","0","0","0","0","51","0","0","0","NA","Sun Oct 15 16:24:08 2023","50","The main experiment item","yes","CogPsy_Assignment_With_Instruction.osexp","/Users/joesidley/Desktop","no","mono","no","18","no","white","no","Student","yes","768","/Users/joesidley/Desktop/subject-10.csv","real","Melodramatic Milgram","4.0.5","genuine","right","space","NA","NA","space","NA","right","1251.5592189992894","3023.7627120004618","NA","NA","15902.018347000194","NA","1251.5592189992894","NA","NA","2","real_50","1024","2","48000","-16","experiment","10","even","41333.129488999475","NA","23884.032541000124","54590.05699699992","NA","37642.338625000775","7907.6753450008255","269408.3852430013","NA","NA","269913.4676630001","NA","7939.765056000397","NA","NA","NA","NA","NA","NA","NA","NA","NA","47449.93421900108","NA","269913.8142610009","60060.99121800071","269401.7537500004","NA","60059.26237800122","NA","47448.02506000087","271166.7622010009","NA","41331.25984599974","NA","NA","New experiment","27","175815.88010099393","52","1024"
"52","NA","52","3332","3332","#3d3846","psycho","NA","1","undefined","undefined","1","right","0","0","0","0","0","0","0","52","NA","0","52","NA","0","NA","NA","NA","0","NA","NA","NA","NA","NA","0","NA","52","0","52","0","0","0","0","52","0","0","0","NA","Sun Oct 15 16:24:08 2023","50","The main experiment item","yes","CogPsy_Assignment_With_Instruction.osexp","/Users/joesidley/Desktop","no","mono","no","18","no","white","no","Student","yes","768","/Users/joesidley/Desktop/subject-10.csv","real","Melodramatic Milgram","4.0.5","genuine","right","space","NA","NA","space","NA","right","811.0100769990822","3023.7627120004618","NA","NA","15902.018347000194","NA","811.0100769990822","NA","NA","2","real_50","1024","2","48000","-16","experiment","10","even","41333.129488999475","NA","23884.032541000124","54590.05699699992","NA","37642.338625000775","7907.6753450008255","271296.3916910012","NA","NA","271800.9690859999","NA","7939.765056000397","NA","NA","NA","NA","NA","NA","NA","NA","NA","47449.93421900108","NA","271801.2588270012","60060.99121800071","271290.4728480007","NA","60059.26237800122","NA","47448.02506000087","272613.88990300114","NA","41331.25984599974","NA","NA","New experiment","28","176626.89017799302","53","1024"
"53","NA","53","3319","3319","#3d3846","psycho","NA","1","undefined","undefined","1","left","0","0","0","0","0","0","0","53","NA","0","53","NA","0","NA","NA","NA","0","NA","NA","NA","NA","NA","0","NA","53","0","53","0","0","0","0","53","0","0","0","NA","Sun Oct 15 16:24:08 2023","20","The main experiment item","yes","CogPsy_Assignment_With_Instruction.osexp","/Users/joesidley/Desktop","no","mono","no","18","no","white","no","Student","yes","768","/Users/joesidley/Desktop/subject-10.csv","fake","Melodramatic Milgram","4.0.5","bottom_left","left","space","NA","NA","space","NA","left","2609.483784999582","3023.7627120004618","NA","NA","15902.018347000194","NA","2609.483784999582","NA","NA","2","fake_1_20","1024","2","48000","-16","experiment","10","even","41333.129488999475","NA","23884.032541000124","54590.05699699992","NA","37642.338625000775","7907.6753450008255","272746.2528880005","NA","NA","273251.0880990012","NA","7939.765056000397","NA","NA","NA","NA","NA","NA","NA","NA","NA","47449.93421900108","NA","273251.43505800044","60060.99121800071","272740.1381710006","NA","60059.26237800122","NA","47448.02506000087","275862.4867470007","NA","41331.25984599974","NA","NA","New experiment","29","179236.3739629926","54","1024"
"53","NA","53","3319","3319","#3d3846","psycho","NA","1","undefined","undefined","1","left","0","0","0","0","0","0","0","53","NA","0","53","NA","0","NA","NA","NA","0","NA","NA","NA","NA","NA","0","NA","53","0","53","0","0","0","0","53","0","0","0","NA","Sun Oct 15 16:24:08 2023","20","The main experiment item","yes","CogPsy_Assignment_With_Instruction.osexp","/Users/joesidley/Desktop","no","mono","no","18","no","white","no","presence of black line, too colourful,symbols look too animated, shininess","yes","768","/Users/joesidley/Desktop/subject-10.csv","fake","Melodramatic Milgram","4.0.5","bottom_left","presence of black line, too colourful,symbols look too animated, shininess","space","NA","NA","space","NA","left","2609.483784999582","3023.7627120004618","NA","NA","15902.018347000194","NA","2609.483784999582","NA","NA","2","fake_1_20","1024","2","48000","-16","experiment","10","even","41333.129488999475","NA","23884.032541000124","54590.05699699992","NA","37642.338625000775","7907.6753450008255","272746.2528880005","NA","NA","273251.0880990012","NA","7939.765056000397","NA","NA","NA","348480.4676540007","NA","NA","NA","NA","NA","47449.93421900108","NA","273251.43505800044","60060.99121800071","272740.1381710006","NA","60059.26237800122","275937.059191001","47448.02506000087","275862.4867470007","NA","41331.25984599974","NA","NA","New experiment","29","179236.3739629926","54","1024"
"53","NA","53","3319","3319","#3d3846","psycho","NA","1","undefined","undefined","1","left","0","0","0","0","0","0","0","53","NA","0","53","NA","0","NA","NA","NA","0","NA","NA","NA","NA","NA","0","NA","53","0","53","0","0","0","0","53","0","0","0","NA","Sun Oct 15 16:24:08 2023","20","The main experiment item","yes","CogPsy_Assignment_With_Instruction.osexp","/Users/joesidley/Desktop","no","mono","no","18","no","white","no","Ok","yes","768","/Users/joesidley/Desktop/subject-10.csv","fake","Melodramatic Milgram","4.0.5","bottom_left","Silver strip (security thread);Ink quality","space","NA","NA","space","NA","left","2609.483784999582","3023.7627120004618","NA","NA","15902.018347000194","NA","2609.483784999582","NA","NA","2","fake_1_20","1024","2","48000","-16","experiment","10","even","41333.129488999475","NA","23884.032541000124","54590.05699699992","NA","37642.338625000775","7907.6753450008255","272746.2528880005","NA","NA","273251.0880990012","NA","7939.765056000397","NA","NA","NA","348480.4676540007","NA","NA","NA","NA","NA","47449.93421900108","NA","273251.43505800044","60060.99121800071","272740.1381710006","NA","60059.26237800122","275937.059191001","47448.02506000087","275862.4867470007","NA","41331.25984599974","366434.75674600084","NA","New experiment","29","179236.3739629926","54","1024"
