"acc","accept_status","accuracy","average_response_time","avg_rt","background","canvas_backend","checkbox_status","correct","correct_consent_sketchpad","correct_instruction_sketchpad","correct_new_keyboard_response","correct_response","count_age_form","count_checkbox_security_form","count_consent_sketchpad","count_country_logger","count_eurozone_form","count_eurozone_logger","count_experiment","count_fixation_dots","count_getting_started","count_goodbye_sketchpad","count_images_sketchpad","count_information_display_sketchpad","count_instruction_sketchpad","count_new_1_form_base","count_new_1_form_text_input","count_new_1_sketchpad","count_new_2_logger","count_new_4_form_multiple_choice","count_new_form_base","count_new_form_consent","count_new_form_multiple_choice","count_new_form_text_display","count_new_form_text_input","count_new_inline_script","count_new_keyboard_response","count_new_loop","count_new_sequence","count_occupation_form","count_occupation_logger","count_open_security_input_form","count_personal_data_logger","count_response_logger","count_schooling_level_form","count_schooling_logger","count_security_feature_logger","count_welcome","datetime","denomination","description","disable_garbage_collection","experiment_file","experiment_path","font_bold","font_family","font_italic","font_size","font_underline","foreground","form_clicks","form_response","fullscreen","height","logfile","note_type","opensesame_codename","opensesame_version","reason","response","response_consent_sketchpad","response_goodbye_sketchpad","response_information_display_sketchpad","response_instruction_sketchpad","response_new_1_sketchpad","response_new_keyboard_response","response_time","response_time_consent_sketchpad","response_time_goodbye_sketchpad","response_time_information_display_sketchpad","response_time_instruction_sketchpad","response_time_new_1_sketchpad","response_time_new_keyboard_response","response_time_welcome","response_welcome","round_decimals","show","sound_buf_size","sound_channels","sound_freq","sound_sample_size","start","subject_nr","subject_parity","time_age_form","time_checkbox_security_form","time_consent_sketchpad","time_country_logger","time_eurozone_form","time_eurozone_logger","time_experiment","time_fixation_dots","time_getting_started","time_goodbye_sketchpad","time_images_sketchpad","time_information_display_sketchpad","time_instruction_sketchpad","time_new_1_form_base","time_new_1_form_text_input","time_new_1_sketchpad","time_new_2_logger","time_new_4_form_multiple_choice","time_new_form_base","time_new_form_consent","time_new_form_multiple_choice","time_new_form_text_display","time_new_form_text_input","time_new_inline_script","time_new_keyboard_response","time_new_loop","time_new_sequence","time_occupation_form","time_occupation_logger","time_open_security_input_form","time_personal_data_logger","time_response_logger","time_schooling_level_form","time_schooling_logger","time_security_feature_logger","time_welcome","title","total_correct","total_response_time","total_responses","width"
"undefined","NA","undefined","undefined","undefined","#3d3846","psycho","NA","undefined","undefined","undefined","NA","NA","0","0","0","0","0","0","0","NA","NA","0","NA","NA","0","NA","NA","NA","0","NA","NA","NA","NA","NA","0","NA","NA","0","NA","0","0","0","0","NA","0","0","0","NA","Sun Oct 15 19:35:47 2023","NA","The main experiment item","yes","CogPsy_Assignment_With_Instruction.osexp","C:/Users/franc/OneDrive/Documents","no","mono","no","18","no","white","no","Yes","yes","768","C:/Users/franc/OneDrive/Documents/subject-51.csv","NA","Melodramatic Milgram","4.0.5","NA","Yes","return","NA","NA","return","NA","NA","5071.680299995933","5071.680299995933","NA","NA","30119.104199984577","NA","NA","NA","NA","2","NA","1024","2","48000","-16","experiment","51","odd","NA","NA","42433.964099996956","NA","NA","52026.012199989054","12287.984599999618","NA","NA","NA","NA","NA","12311.319100001128","NA","NA","NA","NA","NA","NA","NA","NA","NA","NA","NA","NA","NA","NA","NA","NA","NA","NA","NA","NA","NA","NA","NA","New experiment","0","0","0","1024"
"undefined","NA","undefined","undefined","undefined","#3d3846","psycho","NA","undefined","undefined","undefined","NA","NA","0","0","0","0","0","0","0","NA","NA","0","NA","NA","0","NA","NA","NA","0","NA","NA","NA","NA","NA","0","NA","NA","0","NA","0","0","0","0","NA","0","0","0","NA","Sun Oct 15 19:35:47 2023","NA","The main experiment item","yes","CogPsy_Assignment_With_Instruction.osexp","C:/Users/franc/OneDrive/Documents","no","mono","no","18","no","white","no","Masters","yes","768","C:/Users/franc/OneDrive/Documents/subject-51.csv","NA","Melodramatic Milgram","4.0.5","NA","Masters","return","NA","NA","return","NA","NA","5071.680299995933","5071.680299995933","NA","NA","30119.104199984577","NA","NA","NA","NA","2","NA","1024","2","48000","-16","experiment","51","odd","NA","NA","42433.964099996956","NA","NA","52026.012199989054","12287.984599999618","NA","NA","NA","NA","NA","12311.319100001128","NA","NA","NA","NA","NA","NA","NA","NA","NA","NA","NA","NA","NA","NA","NA","NA","NA","NA","NA","NA","58135.56399999652","NA","NA","New experiment","0","0","0","1024"
"undefined","NA","undefined","undefined","undefined","#3d3846","psycho","NA","undefined","undefined","undefined","NA","NA","0","0","0","0","0","0","0","NA","NA","0","NA","NA","0","NA","NA","NA","0","NA","NA","NA","NA","NA","0","NA","NA","0","NA","0","0","0","0","NA","0","0","0","NA","Sun Oct 15 19:35:47 2023","NA","The main experiment item","yes","CogPsy_Assignment_With_Instruction.osexp","C:/Users/franc/OneDrive/Documents","no","mono","no","18","no","white","no","36","yes","768","C:/Users/franc/OneDrive/Documents/subject-51.csv","NA","Melodramatic Milgram","4.0.5","NA","36","return","NA","NA","return","NA","NA","5071.680299995933","5071.680299995933","NA","NA","30119.104199984577","NA","NA","NA","NA","2","NA","1024","2","48000","-16","experiment","51","odd","58139.85949999187","NA","42433.964099996956","NA","NA","52026.012199989054","12287.984599999618","NA","NA","NA","NA","NA","12311.319100001128","NA","NA","NA","NA","NA","NA","NA","NA","NA","NA","NA","NA","NA","NA","NA","NA","NA","117224.88490000251","NA","NA","58135.56399999652","NA","NA","New experiment","0","0","0","1024"
"undefined","NA","undefined","undefined","undefined","#3d3846","psycho","NA","undefined","undefined","undefined","NA","NA","0","0","0","0","0","0","0","NA","NA","0","NA","NA","0","NA","NA","NA","0","NA","NA","NA","NA","NA","0","NA","NA","0","NA","0","0","0","0","NA","0","0","0","NA","Sun Oct 15 19:35:47 2023","NA","The main experiment item","yes","CogPsy_Assignment_With_Instruction.osexp","C:/Users/franc/OneDrive/Documents","no","mono","no","18","no","white","no","Italian","yes","768","C:/Users/franc/OneDrive/Documents/subject-51.csv","NA","Melodramatic Milgram","4.0.5","NA","Italian","return","NA","NA","return","NA","NA","5071.680299995933","5071.680299995933","NA","NA","30119.104199984577","NA","NA","NA","NA","2","NA","1024","2","48000","-16","experiment","51","odd","58139.85949999187","NA","42433.964099996956","137717.70129998913","NA","52026.012199989054","12287.984599999618","NA","NA","NA","NA","NA","12311.319100001128","NA","NA","NA","NA","NA","NA","NA","NA","NA","117230.08409998147","NA","NA","NA","NA","NA","NA","NA","117224.88490000251","NA","NA","58135.56399999652","NA","NA","New experiment","0","0","0","1024"
"undefined","NA","undefined","undefined","undefined","#3d3846","psycho","NA","undefined","undefined","undefined","NA","NA","0","0","0","0","0","0","0","NA","NA","0","NA","NA","0","NA","NA","NA","0","NA","NA","NA","NA","NA","0","NA","NA","0","NA","0","0","0","0","NA","0","0","0","NA","Sun Oct 15 19:35:47 2023","NA","The main experiment item","yes","CogPsy_Assignment_With_Instruction.osexp","C:/Users/franc/OneDrive/Documents","no","mono","no","18","no","white","no","Professional and Technical Occupations","yes","768","C:/Users/franc/OneDrive/Documents/subject-51.csv","NA","Melodramatic Milgram","4.0.5","NA","Professional and Technical Occupations","return","NA","NA","return","NA","NA","5071.680299995933","5071.680299995933","NA","NA","30119.104199984577","NA","NA","NA","NA","2","NA","1024","2","48000","-16","experiment","51","odd","58139.85949999187","NA","42433.964099996956","137717.70129998913","NA","52026.012199989054","12287.984599999618","NA","NA","NA","NA","NA","12311.319100001128","NA","NA","NA","NA","NA","NA","NA","NA","NA","117230.08409998147","NA","NA","NA","NA","NA","151317.90779999574","NA","117224.88490000251","NA","NA","58135.56399999652","NA","NA","New experiment","0","0","0","1024"
"0","NA","0","5723","5723","#3d3846","psycho","NA","0","undefined","undefined","0","left","0","0","0","0","0","0","0","0","NA","0","0","NA","0","NA","NA","NA","0","NA","NA","NA","NA","NA","0","NA","0","0","0","0","0","0","0","0","0","0","0","NA","Sun Oct 15 19:35:47 2023","20","The main experiment item","yes","CogPsy_Assignment_With_Instruction.osexp","C:/Users/franc/OneDrive/Documents","no","mono","no","18","no","white","no","Professional and Technical Occupations","yes","768","C:/Users/franc/OneDrive/Documents/subject-51.csv","fake","Melodramatic Milgram","4.0.5","NoNumOnThread_BlurryWatermark","right","return","NA","NA","return","NA","right","5723.179900000105","5071.680299995933","NA","NA","30119.104199984577","NA","5723.179900000105","NA","NA","2","fake_20","1024","2","48000","-16","experiment","51","odd","58139.85949999187","NA","42433.964099996956","137717.70129998913","NA","52026.012199989054","12287.984599999618","151461.28529999987","NA","NA","151964.78639999987","NA","12311.319100001128","NA","NA","NA","NA","NA","NA","NA","NA","NA","117230.08409998147","NA","151964.87150000758","151322.56689999485","151456.87349999207","NA","151317.90779999574","NA","117224.88490000251","157688.42220000806","NA","58135.56399999652","NA","NA","New experiment","0","5723.179900000105","1","1024"
"0","NA","0","6702","6702","#3d3846","psycho","NA","0","undefined","undefined","0","left","0","0","0","0","0","0","0","1","NA","0","1","NA","0","NA","NA","NA","0","NA","NA","NA","NA","NA","0","NA","1","0","1","0","0","0","0","1","0","0","0","NA","Sun Oct 15 19:35:47 2023","20","The main experiment item","yes","CogPsy_Assignment_With_Instruction.osexp","C:/Users/franc/OneDrive/Documents","no","mono","no","18","no","white","no","Professional and Technical Occupations","yes","768","C:/Users/franc/OneDrive/Documents/subject-51.csv","fake","Melodramatic Milgram","4.0.5","DullHologram","right","return","NA","NA","return","NA","right","7681.1272999912035","5071.680299995933","NA","NA","30119.104199984577","NA","7681.1272999912035","NA","NA","2","fake_20","1024","2","48000","-16","experiment","51","odd","58139.85949999187","NA","42433.964099996956","137717.70129998913","NA","52026.012199989054","12287.984599999618","158810.2355999872","NA","NA","159313.95899999188","NA","12311.319100001128","NA","NA","NA","NA","NA","NA","NA","NA","NA","117230.08409998147","NA","159314.08529999317","151322.56689999485","158806.50149998837","NA","151317.90779999574","NA","117224.88490000251","166995.54709999938","NA","58135.56399999652","NA","NA","New experiment","0","13404.307199991308","2","1024"
"0","NA","0","6388","6388","#3d3846","psycho","NA","0","undefined","undefined","0","left","0","0","0","0","0","0","0","2","NA","0","2","NA","0","NA","NA","NA","0","NA","NA","NA","NA","NA","0","NA","2","0","2","0","0","0","0","2","0","0","0","NA","Sun Oct 15 19:35:47 2023","50","The main experiment item","yes","CogPsy_Assignment_With_Instruction.osexp","C:/Users/franc/OneDrive/Documents","no","mono","no","18","no","white","no","Professional and Technical Occupations","yes","768","C:/Users/franc/OneDrive/Documents/subject-51.csv","fake","Melodramatic Milgram","4.0.5","PurpleDenomination3","right","return","NA","NA","return","NA","right","5760.933100013062","5071.680299995933","NA","NA","30119.104199984577","NA","5760.933100013062","NA","NA","2","fake_2_50","1024","2","48000","-16","experiment","51","odd","58139.85949999187","NA","42433.964099996956","137717.70129998913","NA","52026.012199989054","12287.984599999618","167131.70769999851","NA","NA","167634.81359998696","NA","12311.319100001128","NA","NA","NA","NA","NA","NA","NA","NA","NA","117230.08409998147","NA","167634.90129998536","151322.56689999485","167127.37579998793","NA","151317.90779999574","NA","117224.88490000251","173396.27460000338","NA","58135.56399999652","NA","NA","New experiment","0","19165.24030000437","3","1024"
"25","NA","25","5743","5743","#3d3846","psycho","NA","1","undefined","undefined","1","right","0","0","0","0","0","0","0","3","NA","0","3","NA","0","NA","NA","NA","0","NA","NA","NA","NA","NA","0","NA","3","0","3","0","0","0","0","3","0","0","0","NA","Sun Oct 15 19:35:47 2023","50","The main experiment item","yes","CogPsy_Assignment_With_Instruction.osexp","C:/Users/franc/OneDrive/Documents","no","mono","no","18","no","white","no","Professional and Technical Occupations","yes","768","C:/Users/franc/OneDrive/Documents/subject-51.csv","real","Melodramatic Milgram","4.0.5","photo_2","right","return","NA","NA","return","NA","right","3807.0282000117004","5071.680299995933","NA","NA","30119.104199984577","NA","3807.0282000117004","NA","NA","2","real_50","1024","2","48000","-16","experiment","51","odd","58139.85949999187","NA","42433.964099996956","137717.70129998913","NA","52026.012199989054","12287.984599999618","173523.06919998955","NA","NA","174026.38989998377","NA","12311.319100001128","NA","NA","NA","NA","NA","NA","NA","NA","NA","117230.08409998147","NA","174026.53479998116","151322.56689999485","173519.5066999877","NA","151317.90779999574","NA","117224.88490000251","177833.90369999688","NA","58135.56399999652","NA","NA","New experiment","1","22972.26850001607","4","1024"
"20","NA","20","5641","5641","#3d3846","psycho","NA","0","undefined","undefined","0","left","0","0","0","0","0","0","0","4","NA","0","4","NA","0","NA","NA","NA","0","NA","NA","NA","NA","NA","0","NA","4","0","4","0","0","0","0","4","0","0","0","NA","Sun Oct 15 19:35:47 2023","20","The main experiment item","yes","CogPsy_Assignment_With_Instruction.osexp","C:/Users/franc/OneDrive/Documents","no","mono","no","18","no","white","no","Professional and Technical Occupations","yes","768","C:/Users/franc/OneDrive/Documents/subject-51.csv","fake","Melodramatic Milgram","4.0.5","BadInk","right","return","NA","NA","return","NA","right","5236.136099993018","5071.680299995933","NA","NA","30119.104199984577","NA","5236.136099993018","NA","NA","2","fake_20","1024","2","48000","-16","experiment","51","odd","58139.85949999187","NA","42433.964099996956","137717.70129998913","NA","52026.012199989054","12287.984599999618","177972.3873999901","NA","NA","178475.75620000134","NA","12311.319100001128","NA","NA","NA","NA","NA","NA","NA","NA","NA","117230.08409998147","NA","178475.94969999045","151322.56689999485","177968.6984999862","NA","151317.90779999574","NA","117224.88490000251","183712.45269998326","NA","58135.56399999652","NA","NA","New experiment","1","28208.40460000909","5","1024"
"33","NA","33","6125","6125","#3d3846","psycho","NA","1","undefined","undefined","1","right","0","0","0","0","0","0","0","5","NA","0","5","NA","0","NA","NA","NA","0","NA","NA","NA","NA","NA","0","NA","5","0","5","0","0","0","0","5","0","0","0","NA","Sun Oct 15 19:35:47 2023","50","The main experiment item","yes","CogPsy_Assignment_With_Instruction.osexp","C:/Users/franc/OneDrive/Documents","no","mono","no","18","no","white","no","Professional and Technical Occupations","yes","768","C:/Users/franc/OneDrive/Documents/subject-51.csv","real","Melodramatic Milgram","4.0.5","photo","right","return","NA","NA","return","NA","right","8544.964200002141","5071.680299995933","NA","NA","30119.104199984577","NA","8544.964200002141","NA","NA","2","real_50","1024","2","48000","-16","experiment","51","odd","58139.85949999187","NA","42433.964099996956","137717.70129998913","NA","52026.012199989054","12287.984599999618","183845.344500005","NA","NA","184348.47759999684","NA","12311.319100001128","NA","NA","NA","NA","NA","NA","NA","NA","NA","117230.08409998147","NA","184348.56660000514","151322.56689999485","183841.25359999598","NA","151317.90779999574","NA","117224.88490000251","192893.90749999438","NA","58135.56399999652","NA","NA","New experiment","2","36753.36880001123","6","1024"
"42","NA","42","5689","5689","#3d3846","psycho","NA","1","undefined","undefined","1","left","0","0","0","0","0","0","0","6","NA","0","6","NA","0","NA","NA","NA","0","NA","NA","NA","NA","NA","0","NA","6","0","6","0","0","0","0","6","0","0","0","NA","Sun Oct 15 19:35:47 2023","20","The main experiment item","yes","CogPsy_Assignment_With_Instruction.osexp","C:/Users/franc/OneDrive/Documents","no","mono","no","18","no","white","no","Professional and Technical Occupations","yes","768","C:/Users/franc/OneDrive/Documents/subject-51.csv","fake","Melodramatic Milgram","4.0.5","silver_strip","left","return","NA","NA","return","NA","left","3070.0845000101253","5071.680299995933","NA","NA","30119.104199984577","NA","3070.0845000101253","NA","NA","2","fake_2_20","1024","2","48000","-16","experiment","51","odd","58139.85949999187","NA","42433.964099996956","137717.70129998913","NA","52026.012199989054","12287.984599999618","193020.48509998713","NA","NA","193523.24310000404","NA","12311.319100001128","NA","NA","NA","NA","NA","NA","NA","NA","NA","117230.08409998147","NA","193523.34879999398","151322.56689999485","193016.5202000062","NA","151317.90779999574","NA","117224.88490000251","196593.82670000196","NA","58135.56399999652","NA","NA","New experiment","3","39823.453300021356","7","1024"
"50","NA","50","5428","5428","#3d3846","psycho","NA","1","undefined","undefined","1","right","0","0","0","0","0","0","0","7","NA","0","7","NA","0","NA","NA","NA","0","NA","NA","NA","NA","NA","0","NA","7","0","7","0","0","0","0","7","0","0","0","NA","Sun Oct 15 19:35:47 2023","50","The main experiment item","yes","CogPsy_Assignment_With_Instruction.osexp","C:/Users/franc/OneDrive/Documents","no","mono","no","18","no","white","no","Professional and Technical Occupations","yes","768","C:/Users/franc/OneDrive/Documents/subject-51.csv","real","Melodramatic Milgram","4.0.5","photo_2","right","return","NA","NA","return","NA","right","3608.1772000179626","5071.680299995933","NA","NA","30119.104199984577","NA","3608.1772000179626","NA","NA","2","real_50","1024","2","48000","-16","experiment","51","odd","58139.85949999187","NA","42433.964099996956","137717.70129998913","NA","52026.012199989054","12287.984599999618","196704.1414999985","NA","NA","197207.1297999937","NA","12311.319100001128","NA","NA","NA","NA","NA","NA","NA","NA","NA","117230.08409998147","NA","197207.22859998932","151322.56689999485","196700.6676000019","NA","151317.90779999574","NA","117224.88490000251","200815.7619999838","NA","58135.56399999652","NA","NA","New experiment","4","43431.63050003932","8","1024"
"44","NA","44","5162","5162","#3d3846","psycho","NA","0","undefined","undefined","0","right","0","0","0","0","0","0","0","8","NA","0","8","NA","0","NA","NA","NA","0","NA","NA","NA","NA","NA","0","NA","8","0","8","0","0","0","0","8","0","0","0","NA","Sun Oct 15 19:35:47 2023","20","The main experiment item","yes","CogPsy_Assignment_With_Instruction.osexp","C:/Users/franc/OneDrive/Documents","no","mono","no","18","no","white","no","Professional and Technical Occupations","yes","768","C:/Users/franc/OneDrive/Documents/subject-51.csv","real","Melodramatic Milgram","4.0.5","genuine","left","return","NA","NA","return","NA","left","3027.8922999859788","5071.680299995933","NA","NA","30119.104199984577","NA","3027.8922999859788","NA","NA","2","real_20","1024","2","48000","-16","experiment","51","odd","58139.85949999187","NA","42433.964099996956","137717.70129998913","NA","52026.012199989054","12287.984599999618","200933.90790000558","NA","NA","201436.8545000034","NA","12311.319100001128","NA","NA","NA","NA","NA","NA","NA","NA","NA","117230.08409998147","NA","201436.97730000713","151322.56689999485","200930.014499987","NA","151317.90779999574","NA","117224.88490000251","204466.31129999878","NA","58135.56399999652","NA","NA","New experiment","4","46459.5228000253","9","1024"
"40","NA","40","4958","4958","#3d3846","psycho","NA","0","undefined","undefined","0","left","0","0","0","0","0","0","0","9","NA","0","9","NA","0","NA","NA","NA","0","NA","NA","NA","NA","NA","0","NA","9","0","9","0","0","0","0","9","0","0","0","NA","Sun Oct 15 19:35:47 2023","50","The main experiment item","yes","CogPsy_Assignment_With_Instruction.osexp","C:/Users/franc/OneDrive/Documents","no","mono","no","18","no","white","no","Professional and Technical Occupations","yes","768","C:/Users/franc/OneDrive/Documents/subject-51.csv","fake","Melodramatic Milgram","4.0.5","PurpleDenomination","right","return","NA","NA","return","NA","right","3124.201800004812","5071.680299995933","NA","NA","30119.104199984577","NA","3124.201800004812","NA","NA","2","fake_2_50","1024","2","48000","-16","experiment","51","odd","58139.85949999187","NA","42433.964099996956","137717.70129998913","NA","52026.012199989054","12287.984599999618","204587.51489999122","NA","NA","205090.47309999005","NA","12311.319100001128","NA","NA","NA","NA","NA","NA","NA","NA","NA","117230.08409998147","NA","205090.60319999116","151322.56689999485","204583.9530999947","NA","151317.90779999574","NA","117224.88490000251","208215.2017999906","NA","58135.56399999652","NA","NA","New experiment","4","49583.72460003011","10","1024"
"36","NA","36","4715","4715","#3d3846","psycho","NA","0","undefined","undefined","0","right","0","0","0","0","0","0","0","10","NA","0","10","NA","0","NA","NA","NA","0","NA","NA","NA","NA","NA","0","NA","10","0","10","0","0","0","0","10","0","0","0","NA","Sun Oct 15 19:35:47 2023","50","The main experiment item","yes","CogPsy_Assignment_With_Instruction.osexp","C:/Users/franc/OneDrive/Documents","no","mono","no","18","no","white","no","Professional and Technical Occupations","yes","768","C:/Users/franc/OneDrive/Documents/subject-51.csv","real","Melodramatic Milgram","4.0.5","photo","left","return","NA","NA","return","NA","left","2291.7787000187673","5071.680299995933","NA","NA","30119.104199984577","NA","2291.7787000187673","NA","NA","2","real_50","1024","2","48000","-16","experiment","51","odd","58139.85949999187","NA","42433.964099996956","137717.70129998913","NA","52026.012199989054","12287.984599999618","208335.95649999916","NA","NA","208839.40979998442","NA","12311.319100001128","NA","NA","NA","NA","NA","NA","NA","NA","NA","117230.08409998147","NA","208839.54399998765","151322.56689999485","208332.2782999894","NA","151317.90779999574","NA","117224.88490000251","211131.69720000587","NA","58135.56399999652","NA","NA","New experiment","4","51875.50330004888","11","1024"
"41","NA","41","4561","4561","#3d3846","psycho","NA","1","undefined","undefined","1","left","0","0","0","0","0","0","0","11","NA","0","11","NA","0","NA","NA","NA","0","NA","NA","NA","NA","NA","0","NA","11","0","11","0","0","0","0","11","0","0","0","NA","Sun Oct 15 19:35:47 2023","50","The main experiment item","yes","CogPsy_Assignment_With_Instruction.osexp","C:/Users/franc/OneDrive/Documents","no","mono","no","18","no","white","no","Professional and Technical Occupations","yes","768","C:/Users/franc/OneDrive/Documents/subject-51.csv","fake","Melodramatic Milgram","4.0.5","bottom_left","left","return","NA","NA","return","NA","left","2867.144299991196","5071.680299995933","NA","NA","30119.104199984577","NA","2867.144299991196","NA","NA","2","fake_1_50","1024","2","48000","-16","experiment","51","odd","58139.85949999187","NA","42433.964099996956","137717.70129998913","NA","52026.012199989054","12287.984599999618","211248.85259999428","NA","NA","211752.8980000061","NA","12311.319100001128","NA","NA","NA","NA","NA","NA","NA","NA","NA","117230.08409998147","NA","211753.03749999148","151322.56689999485","211244.7414000053","NA","151317.90779999574","NA","117224.88490000251","214620.5636000086","NA","58135.56399999652","NA","NA","New experiment","5","54742.64760004007","12","1024"
"46","NA","46","4391","4391","#3d3846","psycho","NA","1","undefined","undefined","1","left","0","0","0","0","0","0","0","12","NA","0","12","NA","0","NA","NA","NA","0","NA","NA","NA","NA","NA","0","NA","12","0","12","0","0","0","0","12","0","0","0","NA","Sun Oct 15 19:35:47 2023","50","The main experiment item","yes","CogPsy_Assignment_With_Instruction.osexp","C:/Users/franc/OneDrive/Documents","no","mono","no","18","no","white","no","Professional and Technical Occupations","yes","768","C:/Users/franc/OneDrive/Documents/subject-51.csv","fake","Melodramatic Milgram","4.0.5","PurpleDenomination2","left","return","NA","NA","return","NA","left","2344.897699978901","5071.680299995933","NA","NA","30119.104199984577","NA","2344.897699978901","NA","NA","2","fake_2_50","1024","2","48000","-16","experiment","51","odd","58139.85949999187","NA","42433.964099996956","137717.70129998913","NA","52026.012199989054","12287.984599999618","214754.1918999923","NA","NA","215257.1367000055","NA","12311.319100001128","NA","NA","NA","NA","NA","NA","NA","NA","NA","117230.08409998147","NA","215257.21310000517","151322.56689999485","214750.51789998543","NA","151317.90779999574","NA","117224.88490000251","217602.51289998996","NA","58135.56399999652","NA","NA","New experiment","6","57087.545300018974","13","1024"
"50","NA","50","4251","4251","#3d3846","psycho","NA","1","undefined","undefined","1","left","0","0","0","0","0","0","0","13","NA","0","13","NA","0","NA","NA","NA","0","NA","NA","NA","NA","NA","0","NA","13","0","13","0","0","0","0","13","0","0","0","NA","Sun Oct 15 19:35:47 2023","20","The main experiment item","yes","CogPsy_Assignment_With_Instruction.osexp","C:/Users/franc/OneDrive/Documents","no","mono","no","18","no","white","no","Professional and Technical Occupations","yes","768","C:/Users/franc/OneDrive/Documents/subject-51.csv","fake","Melodramatic Milgram","4.0.5","silver_strip","left","return","NA","NA","return","NA","left","2437.1289999980945","5071.680299995933","NA","NA","30119.104199984577","NA","2437.1289999980945","NA","NA","2","fake_2_20","1024","2","48000","-16","experiment","51","odd","58139.85949999187","NA","42433.964099996956","137717.70129998913","NA","52026.012199989054","12287.984599999618","217715.2004999807","NA","NA","218218.76950000296","NA","12311.319100001128","NA","NA","NA","NA","NA","NA","NA","NA","NA","117230.08409998147","NA","218218.9064999984","151322.56689999485","217711.19850000832","NA","151317.90779999574","NA","117224.88490000251","220656.43249999266","NA","58135.56399999652","NA","NA","New experiment","7","59524.67430001707","14","1024"
"53","NA","53","4212","4212","#3d3846","psycho","NA","1","undefined","undefined","1","left","0","0","0","0","0","0","0","14","NA","0","14","NA","0","NA","NA","NA","0","NA","NA","NA","NA","NA","0","NA","14","0","14","0","0","0","0","14","0","0","0","NA","Sun Oct 15 19:35:47 2023","50","The main experiment item","yes","CogPsy_Assignment_With_Instruction.osexp","C:/Users/franc/OneDrive/Documents","no","mono","no","18","no","white","no","Professional and Technical Occupations","yes","768","C:/Users/franc/OneDrive/Documents/subject-51.csv","fake","Melodramatic Milgram","4.0.5","PurpleDenomination3","left","return","NA","NA","return","NA","left","3670.1643000124022","5071.680299995933","NA","NA","30119.104199984577","NA","3670.1643000124022","NA","NA","2","fake_2_50","1024","2","48000","-16","experiment","51","odd","58139.85949999187","NA","42433.964099996956","137717.70129998913","NA","52026.012199989054","12287.984599999618","220778.24970000074","NA","NA","221281.07269998873","NA","12311.319100001128","NA","NA","NA","NA","NA","NA","NA","NA","NA","117230.08409998147","NA","221281.2033999944","151322.56689999485","220774.71050000167","NA","151317.90779999574","NA","117224.88490000251","224951.76120000542","NA","58135.56399999652","NA","NA","New experiment","8","63194.83860002947","15","1024"
"50","NA","50","4138","4138","#3d3846","psycho","NA","0","undefined","undefined","0","right","0","0","0","0","0","0","0","15","NA","0","15","NA","0","NA","NA","NA","0","NA","NA","NA","NA","NA","0","NA","15","0","15","0","0","0","0","15","0","0","0","NA","Sun Oct 15 19:35:47 2023","50","The main experiment item","yes","CogPsy_Assignment_With_Instruction.osexp","C:/Users/franc/OneDrive/Documents","no","mono","no","18","no","white","no","Professional and Technical Occupations","yes","768","C:/Users/franc/OneDrive/Documents/subject-51.csv","real","Melodramatic Milgram","4.0.5","photo","left","return","NA","NA","return","NA","left","3015.6712999742012","5071.680299995933","NA","NA","30119.104199984577","NA","3015.6712999742012","NA","NA","2","real_50","1024","2","48000","-16","experiment","51","odd","58139.85949999187","NA","42433.964099996956","137717.70129998913","NA","52026.012199989054","12287.984599999618","225071.76749999053","NA","NA","225575.12080000015","NA","12311.319100001128","NA","NA","NA","NA","NA","NA","NA","NA","NA","117230.08409998147","NA","225575.2172000066","151322.56689999485","225067.73779998184","NA","151317.90779999574","NA","117224.88490000251","228591.27770000487","NA","58135.56399999652","NA","NA","New experiment","8","66210.50990000367","16","1024"
"47","NA","47","4063","4063","#3d3846","psycho","NA","0","undefined","undefined","0","right","0","0","0","0","0","0","0","16","NA","0","16","NA","0","NA","NA","NA","0","NA","NA","NA","NA","NA","0","NA","16","0","16","0","0","0","0","16","0","0","0","NA","Sun Oct 15 19:35:47 2023","50","The main experiment item","yes","CogPsy_Assignment_With_Instruction.osexp","C:/Users/franc/OneDrive/Documents","no","mono","no","18","no","white","no","Professional and Technical Occupations","yes","768","C:/Users/franc/OneDrive/Documents/subject-51.csv","real","Melodramatic Milgram","4.0.5","genuine","left","return","NA","NA","return","NA","left","2875.2685000072233","5071.680299995933","NA","NA","30119.104199984577","NA","2875.2685000072233","NA","NA","2","real_50","1024","2","48000","-16","experiment","51","odd","58139.85949999187","NA","42433.964099996956","137717.70129998913","NA","52026.012199989054","12287.984599999618","228706.34129998507","NA","NA","229209.43580000312","NA","12311.319100001128","NA","NA","NA","NA","NA","NA","NA","NA","NA","117230.08409998147","NA","229209.56019998994","151322.56689999485","228702.62659998843","NA","151317.90779999574","NA","117224.88490000251","232085.23629998672","NA","58135.56399999652","NA","NA","New experiment","8","69085.7784000109","17","1024"
"50","NA","50","4051","4051","#3d3846","psycho","NA","1","undefined","undefined","1","left","0","0","0","0","0","0","0","17","NA","0","17","NA","0","NA","NA","NA","0","NA","NA","NA","NA","NA","0","NA","17","0","17","0","0","0","0","17","0","0","0","NA","Sun Oct 15 19:35:47 2023","20","The main experiment item","yes","CogPsy_Assignment_With_Instruction.osexp","C:/Users/franc/OneDrive/Documents","no","mono","no","18","no","white","no","Professional and Technical Occupations","yes","768","C:/Users/franc/OneDrive/Documents/subject-51.csv","fake","Melodramatic Milgram","4.0.5","BadInk2","left","return","NA","NA","return","NA","left","3840.428700001212","5071.680299995933","NA","NA","30119.104199984577","NA","3840.428700001212","NA","NA","2","fake_20","1024","2","48000","-16","experiment","51","odd","58139.85949999187","NA","42433.964099996956","137717.70129998913","NA","52026.012199989054","12287.984599999618","232219.0117999853","NA","NA","232722.14539998095","NA","12311.319100001128","NA","NA","NA","NA","NA","NA","NA","NA","NA","117230.08409998147","NA","232722.27219998604","151322.56689999485","232215.38179999334","NA","151317.90779999574","NA","117224.88490000251","236563.11329998425","NA","58135.56399999652","NA","NA","New experiment","9","72926.2071000121","18","1024"
"52","NA","52","3970","3970","#3d3846","psycho","NA","1","undefined","undefined","1","left","0","0","0","0","0","0","0","18","NA","0","18","NA","0","NA","NA","NA","0","NA","NA","NA","NA","NA","0","NA","18","0","18","0","0","0","0","18","0","0","0","NA","Sun Oct 15 19:35:47 2023","50","The main experiment item","yes","CogPsy_Assignment_With_Instruction.osexp","C:/Users/franc/OneDrive/Documents","no","mono","no","18","no","white","no","Professional and Technical Occupations","yes","768","C:/Users/franc/OneDrive/Documents/subject-51.csv","fake","Melodramatic Milgram","4.0.5","PurpleDenomination2","left","return","NA","NA","return","NA","left","2508.6471999820787","5071.680299995933","NA","NA","30119.104199984577","NA","2508.6471999820787","NA","NA","2","fake_2_50","1024","2","48000","-16","experiment","51","odd","58139.85949999187","NA","42433.964099996956","137717.70129998913","NA","52026.012199989054","12287.984599999618","236683.3944999962","NA","NA","237186.41480000224","NA","12311.319100001128","NA","NA","NA","NA","NA","NA","NA","NA","NA","117230.08409998147","NA","237186.51420000242","151322.56689999485","236679.86959998962","NA","151317.90779999574","NA","117224.88490000251","239695.55099998252","NA","58135.56399999652","NA","NA","New experiment","10","75434.85429999419","19","1024"
"55","NA","55","3994","3994","#3d3846","psycho","NA","1","undefined","undefined","1","left","0","0","0","0","0","0","0","19","NA","0","19","NA","0","NA","NA","NA","0","NA","NA","NA","NA","NA","0","NA","19","0","19","0","0","0","0","19","0","0","0","NA","Sun Oct 15 19:35:47 2023","20","The main experiment item","yes","CogPsy_Assignment_With_Instruction.osexp","C:/Users/franc/OneDrive/Documents","no","mono","no","18","no","white","no","Professional and Technical Occupations","yes","768","C:/Users/franc/OneDrive/Documents/subject-51.csv","fake","Melodramatic Milgram","4.0.5","BrownDenomination","left","return","NA","NA","return","NA","left","4452.058900002157","5071.680299995933","NA","NA","30119.104199984577","NA","4452.058900002157","NA","NA","2","fake_20","1024","2","48000","-16","experiment","51","odd","58139.85949999187","NA","42433.964099996956","137717.70129998913","NA","52026.012199989054","12287.984599999618","239820.5006000062","NA","NA","240323.40449999901","NA","12311.319100001128","NA","NA","NA","NA","NA","NA","NA","NA","NA","117230.08409998147","NA","240323.53229998262","151322.56689999485","239817.015299981","NA","151317.90779999574","NA","117224.88490000251","244775.98370000487","NA","58135.56399999652","NA","NA","New experiment","11","79886.91319999634","20","1024"
"52","NA","52","3947","3947","#3d3846","psycho","NA","0","undefined","undefined","0","right","0","0","0","0","0","0","0","20","NA","0","20","NA","0","NA","NA","NA","0","NA","NA","NA","NA","NA","0","NA","20","0","20","0","0","0","0","20","0","0","0","NA","Sun Oct 15 19:35:47 2023","20","The main experiment item","yes","CogPsy_Assignment_With_Instruction.osexp","C:/Users/franc/OneDrive/Documents","no","mono","no","18","no","white","no","Professional and Technical Occupations","yes","768","C:/Users/franc/OneDrive/Documents/subject-51.csv","real","Melodramatic Milgram","4.0.5","genuine","left","return","NA","NA","return","NA","left","3011.302600003546","5071.680299995933","NA","NA","30119.104199984577","NA","3011.302600003546","NA","NA","2","real_20","1024","2","48000","-16","experiment","51","odd","58139.85949999187","NA","42433.964099996956","137717.70129998913","NA","52026.012199989054","12287.984599999618","244880.85129999672","NA","NA","245383.68009999976","NA","12311.319100001128","NA","NA","NA","NA","NA","NA","NA","NA","NA","117230.08409998147","NA","245383.79870000063","151322.56689999485","244876.90360000124","NA","151317.90779999574","NA","117224.88490000251","248395.50220000092","NA","58135.56399999652","NA","NA","New experiment","11","82898.21579999989","21","1024"
"54","NA","54","3818","3818","#3d3846","psycho","NA","1","undefined","undefined","1","right","0","0","0","0","0","0","0","21","NA","0","21","NA","0","NA","NA","NA","0","NA","NA","NA","NA","NA","0","NA","21","0","21","0","0","0","0","21","0","0","0","NA","Sun Oct 15 19:35:47 2023","20","The main experiment item","yes","CogPsy_Assignment_With_Instruction.osexp","C:/Users/franc/OneDrive/Documents","no","mono","no","18","no","white","no","Professional and Technical Occupations","yes","768","C:/Users/franc/OneDrive/Documents/subject-51.csv","real","Melodramatic Milgram","4.0.5","photo","right","return","NA","NA","return","NA","right","1102.2909999883268","5071.680299995933","NA","NA","30119.104199984577","NA","1102.2909999883268","NA","NA","2","real_20","1024","2","48000","-16","experiment","51","odd","58139.85949999187","NA","42433.964099996956","137717.70129998913","NA","52026.012199989054","12287.984599999618","248541.73579998314","NA","NA","249044.7167000093","NA","12311.319100001128","NA","NA","NA","NA","NA","NA","NA","NA","NA","117230.08409998147","NA","249044.84079999384","151322.56689999485","248537.42099998635","NA","151317.90779999574","NA","117224.88490000251","250147.52609998686","NA","58135.56399999652","NA","NA","New experiment","12","84000.50679998822","22","1024"
"56","NA","56","3750","3750","#3d3846","psycho","NA","1","undefined","undefined","1","left","0","0","0","0","0","0","0","22","NA","0","22","NA","0","NA","NA","NA","0","NA","NA","NA","NA","NA","0","NA","22","0","22","0","0","0","0","22","0","0","0","NA","Sun Oct 15 19:35:47 2023","20","The main experiment item","yes","CogPsy_Assignment_With_Instruction.osexp","C:/Users/franc/OneDrive/Documents","no","mono","no","18","no","white","no","Professional and Technical Occupations","yes","768","C:/Users/franc/OneDrive/Documents/subject-51.csv","fake","Melodramatic Milgram","4.0.5","bottom_left","left","return","NA","NA","return","NA","left","2253.0643999925815","5071.680299995933","NA","NA","30119.104199984577","NA","2253.0643999925815","NA","NA","2","fake_1_20","1024","2","48000","-16","experiment","51","odd","58139.85949999187","NA","42433.964099996956","137717.70129998913","NA","52026.012199989054","12287.984599999618","250262.5691999856","NA","NA","250765.45899998746","NA","12311.319100001128","NA","NA","NA","NA","NA","NA","NA","NA","NA","117230.08409998147","NA","250765.56299999356","151322.56689999485","250258.73969998793","NA","151317.90779999574","NA","117224.88490000251","253019.0018999856","NA","58135.56399999652","NA","NA","New experiment","13","86253.5711999808","23","1024"
"58","NA","58","3745","3745","#3d3846","psycho","NA","1","undefined","undefined","1","right","0","0","0","0","0","0","0","23","NA","0","23","NA","0","NA","NA","NA","0","NA","NA","NA","NA","NA","0","NA","23","0","23","0","0","0","0","23","0","0","0","NA","Sun Oct 15 19:35:47 2023","20","The main experiment item","yes","CogPsy_Assignment_With_Instruction.osexp","C:/Users/franc/OneDrive/Documents","no","mono","no","18","no","white","no","Professional and Technical Occupations","yes","768","C:/Users/franc/OneDrive/Documents/subject-51.csv","real","Melodramatic Milgram","4.0.5","photo","right","return","NA","NA","return","NA","right","3641.4994999940973","5071.680299995933","NA","NA","30119.104199984577","NA","3641.4994999940973","NA","NA","2","real_20","1024","2","48000","-16","experiment","51","odd","58139.85949999187","NA","42433.964099996956","137717.70129998913","NA","52026.012199989054","12287.984599999618","253156.35539998766","NA","NA","253659.310499992","NA","12311.319100001128","NA","NA","NA","NA","NA","NA","NA","NA","NA","117230.08409998147","NA","253659.4652000058","151322.56689999485","253152.4950999883","NA","151317.90779999574","NA","117224.88490000251","257301.367499982","NA","58135.56399999652","NA","NA","New experiment","14","89895.0706999749","24","1024"
"60","NA","60","3692","3692","#3d3846","psycho","NA","1","undefined","undefined","1","left","0","0","0","0","0","0","0","24","NA","0","24","NA","0","NA","NA","NA","0","NA","NA","NA","NA","NA","0","NA","24","0","24","0","0","0","0","24","0","0","0","NA","Sun Oct 15 19:35:47 2023","50","The main experiment item","yes","CogPsy_Assignment_With_Instruction.osexp","C:/Users/franc/OneDrive/Documents","no","mono","no","18","no","white","no","Professional and Technical Occupations","yes","768","C:/Users/franc/OneDrive/Documents/subject-51.csv","fake","Melodramatic Milgram","4.0.5","silver_strip","left","return","NA","NA","return","NA","left","2407.7549999929033","5071.680299995933","NA","NA","30119.104199984577","NA","2407.7549999929033","NA","NA","2","fake_2_50","1024","2","48000","-16","experiment","51","odd","58139.85949999187","NA","42433.964099996956","137717.70129998913","NA","52026.012199989054","12287.984599999618","257411.5090999985","NA","NA","257915.0723000057","NA","12311.319100001128","NA","NA","NA","NA","NA","NA","NA","NA","NA","117230.08409998147","NA","257915.2267999889","151322.56689999485","257407.83740000916","NA","151317.90779999574","NA","117224.88490000251","260323.41549999546","NA","58135.56399999652","NA","NA","New experiment","15","92302.8256999678","25","1024"
"61","NA","61","3606","3606","#3d3846","psycho","NA","1","undefined","undefined","1","right","0","0","0","0","0","0","0","25","NA","0","25","NA","0","NA","NA","NA","0","NA","NA","NA","NA","NA","0","NA","25","0","25","0","0","0","0","25","0","0","0","NA","Sun Oct 15 19:35:47 2023","50","The main experiment item","yes","CogPsy_Assignment_With_Instruction.osexp","C:/Users/franc/OneDrive/Documents","no","mono","no","18","no","white","no","Professional and Technical Occupations","yes","768","C:/Users/franc/OneDrive/Documents/subject-51.csv","real","Melodramatic Milgram","4.0.5","photo_2","right","return","NA","NA","return","NA","right","1461.7786000017077","5071.680299995933","NA","NA","30119.104199984577","NA","1461.7786000017077","NA","NA","2","real_50","1024","2","48000","-16","experiment","51","odd","58139.85949999187","NA","42433.964099996956","137717.70129998913","NA","52026.012199989054","12287.984599999618","260435.98949999432","NA","NA","260939.4890999829","NA","12311.319100001128","NA","NA","NA","NA","NA","NA","NA","NA","NA","117230.08409998147","NA","260939.60899999365","151322.56689999485","260432.54609999713","NA","151317.90779999574","NA","117224.88490000251","262401.81740000844","NA","58135.56399999652","NA","NA","New experiment","16","93764.6042999695","26","1024"
"59","NA","59","3536","3536","#3d3846","psycho","NA","0","undefined","undefined","0","left","0","0","0","0","0","0","0","26","NA","0","26","NA","0","NA","NA","NA","0","NA","NA","NA","NA","NA","0","NA","26","0","26","0","0","0","0","26","0","0","0","NA","Sun Oct 15 19:35:47 2023","20","The main experiment item","yes","CogPsy_Assignment_With_Instruction.osexp","C:/Users/franc/OneDrive/Documents","no","mono","no","18","no","white","no","Professional and Technical Occupations","yes","768","C:/Users/franc/OneDrive/Documents/subject-51.csv","fake","Melodramatic Milgram","4.0.5","NoNumOnThread_BlurryWatermark","right","return","NA","NA","return","NA","right","1717.7498000091873","5071.680299995933","NA","NA","30119.104199984577","NA","1717.7498000091873","NA","NA","2","fake_20","1024","2","48000","-16","experiment","51","odd","58139.85949999187","NA","42433.964099996956","137717.70129998913","NA","52026.012199989054","12287.984599999618","262545.18640000606","NA","NA","263048.0195999844","NA","12311.319100001128","NA","NA","NA","NA","NA","NA","NA","NA","NA","117230.08409998147","NA","263048.14569998416","151322.56689999485","262541.08460000134","NA","151317.90779999574","NA","117224.88490000251","264766.30869999644","NA","58135.56399999652","NA","NA","New experiment","16","95482.3540999787","27","1024"
"57","NA","57","3469","3469","#3d3846","psycho","NA","0","undefined","undefined","0","right","0","0","0","0","0","0","0","27","NA","0","27","NA","0","NA","NA","NA","0","NA","NA","NA","NA","NA","0","NA","27","0","27","0","0","0","0","27","0","0","0","NA","Sun Oct 15 19:35:47 2023","50","The main experiment item","yes","CogPsy_Assignment_With_Instruction.osexp","C:/Users/franc/OneDrive/Documents","no","mono","no","18","no","white","no","Professional and Technical Occupations","yes","768","C:/Users/franc/OneDrive/Documents/subject-51.csv","real","Melodramatic Milgram","4.0.5","photo","left","return","NA","NA","return","NA","left","1677.6113999949303","5071.680299995933","NA","NA","30119.104199984577","NA","1677.6113999949303","NA","NA","2","real_50","1024","2","48000","-16","experiment","51","odd","58139.85949999187","NA","42433.964099996956","137717.70129998913","NA","52026.012199989054","12287.984599999618","264889.4444000034","NA","NA","265392.45329998084","NA","12311.319100001128","NA","NA","NA","NA","NA","NA","NA","NA","NA","117230.08409998147","NA","265392.58270000573","151322.56689999485","264885.6165999896","NA","151317.90779999574","NA","117224.88490000251","267070.62409998616","NA","58135.56399999652","NA","NA","New experiment","16","97159.96549997362","28","1024"
"58","NA","58","3410","3410","#3d3846","psycho","NA","1","undefined","undefined","1","left","0","0","0","0","0","0","0","28","NA","0","28","NA","0","NA","NA","NA","0","NA","NA","NA","NA","NA","0","NA","28","0","28","0","0","0","0","28","0","0","0","NA","Sun Oct 15 19:35:47 2023","50","The main experiment item","yes","CogPsy_Assignment_With_Instruction.osexp","C:/Users/franc/OneDrive/Documents","no","mono","no","18","no","white","no","Professional and Technical Occupations","yes","768","C:/Users/franc/OneDrive/Documents/subject-51.csv","fake","Melodramatic Milgram","4.0.5","GreyDenomination","left","return","NA","NA","return","NA","left","1748.4624999924563","5071.680299995933","NA","NA","30119.104199984577","NA","1748.4624999924563","NA","NA","2","fake_2_50","1024","2","48000","-16","experiment","51","odd","58139.85949999187","NA","42433.964099996956","137717.70129998913","NA","52026.012199989054","12287.984599999618","267198.20929999696","NA","NA","267701.3417999842","NA","12311.319100001128","NA","NA","NA","NA","NA","NA","NA","NA","NA","117230.08409998147","NA","267701.42739999574","151322.56689999485","267194.58640000084","NA","151317.90779999574","NA","117224.88490000251","269450.3154999984","NA","58135.56399999652","NA","NA","New experiment","17","98908.42799996608","29","1024"
"60","NA","60","3336","3336","#3d3846","psycho","NA","1","undefined","undefined","1","right","0","0","0","0","0","0","0","29","NA","0","29","NA","0","NA","NA","NA","0","NA","NA","NA","NA","NA","0","NA","29","0","29","0","0","0","0","29","0","0","0","NA","Sun Oct 15 19:35:47 2023","20","The main experiment item","yes","CogPsy_Assignment_With_Instruction.osexp","C:/Users/franc/OneDrive/Documents","no","mono","no","18","no","white","no","Professional and Technical Occupations","yes","768","C:/Users/franc/OneDrive/Documents/subject-51.csv","real","Melodramatic Milgram","4.0.5","photo","right","return","NA","NA","return","NA","right","1199.5301999850199","5071.680299995933","NA","NA","30119.104199984577","NA","1199.5301999850199","NA","NA","2","real_20","1024","2","48000","-16","experiment","51","odd","58139.85949999187","NA","42433.964099996956","137717.70129998913","NA","52026.012199989054","12287.984599999618","269589.29689999786","NA","NA","270092.4676999857","NA","12311.319100001128","NA","NA","NA","NA","NA","NA","NA","NA","NA","117230.08409998147","NA","270092.59280000697","151322.56689999485","269585.41040000273","NA","151317.90779999574","NA","117224.88490000251","271292.57299998426","NA","58135.56399999652","NA","NA","New experiment","18","100107.9581999511","30","1024"
"58","NA","58","3309","3309","#3d3846","psycho","NA","0","undefined","undefined","0","left","0","0","0","0","0","0","0","30","NA","0","30","NA","0","NA","NA","NA","0","NA","NA","NA","NA","NA","0","NA","30","0","30","0","0","0","0","30","0","0","0","NA","Sun Oct 15 19:35:47 2023","50","The main experiment item","yes","CogPsy_Assignment_With_Instruction.osexp","C:/Users/franc/OneDrive/Documents","no","mono","no","18","no","white","no","Professional and Technical Occupations","yes","768","C:/Users/franc/OneDrive/Documents/subject-51.csv","fake","Melodramatic Milgram","4.0.5","NoNumOnThread_BlurryWatermark","right","return","NA","NA","return","NA","right","2501.705000002403","5071.680299995933","NA","NA","30119.104199984577","NA","2501.705000002403","NA","NA","2","fake_2_50","1024","2","48000","-16","experiment","51","odd","58139.85949999187","NA","42433.964099996956","137717.70129998913","NA","52026.012199989054","12287.984599999618","271419.68110000016","NA","NA","271922.8992999997","NA","12311.319100001128","NA","NA","NA","NA","NA","NA","NA","NA","NA","117230.08409998147","NA","271923.06450000615","151322.56689999485","271416.155599989","NA","151317.90779999574","NA","117224.88490000251","274425.2150999964","NA","58135.56399999652","NA","NA","New experiment","18","102609.6631999535","31","1024"
"59","NA","59","3251","3251","#3d3846","psycho","NA","1","undefined","undefined","1","left","0","0","0","0","0","0","0","31","NA","0","31","NA","0","NA","NA","NA","0","NA","NA","NA","NA","NA","0","NA","31","0","31","0","0","0","0","31","0","0","0","NA","Sun Oct 15 19:35:47 2023","50","The main experiment item","yes","CogPsy_Assignment_With_Instruction.osexp","C:/Users/franc/OneDrive/Documents","no","mono","no","18","no","white","no","Professional and Technical Occupations","yes","768","C:/Users/franc/OneDrive/Documents/subject-51.csv","fake","Melodramatic Milgram","4.0.5","silver_strip","left","return","NA","NA","return","NA","left","1434.0416000050027","5071.680299995933","NA","NA","30119.104199984577","NA","1434.0416000050027","NA","NA","2","fake_2_50","1024","2","48000","-16","experiment","51","odd","58139.85949999187","NA","42433.964099996956","137717.70129998913","NA","52026.012199989054","12287.984599999618","274530.9525000048","NA","NA","275033.8729000068","NA","12311.319100001128","NA","NA","NA","NA","NA","NA","NA","NA","NA","117230.08409998147","NA","275034.00250000414","151322.56689999485","274526.01169998525","NA","151317.90779999574","NA","117224.88490000251","276468.50509999786","NA","58135.56399999652","NA","NA","New experiment","19","104043.7047999585","32","1024"
"57","NA","57","3199","3199","#3d3846","psycho","NA","0","undefined","undefined","0","right","0","0","0","0","0","0","0","32","NA","0","32","NA","0","NA","NA","NA","0","NA","NA","NA","NA","NA","0","NA","32","0","32","0","0","0","0","32","0","0","0","NA","Sun Oct 15 19:35:47 2023","20","The main experiment item","yes","CogPsy_Assignment_With_Instruction.osexp","C:/Users/franc/OneDrive/Documents","no","mono","no","18","no","white","no","Professional and Technical Occupations","yes","768","C:/Users/franc/OneDrive/Documents/subject-51.csv","real","Melodramatic Milgram","4.0.5","genuine","left","return","NA","NA","return","NA","left","1550.7231999945361","5071.680299995933","NA","NA","30119.104199984577","NA","1550.7231999945361","NA","NA","2","real_20","1024","2","48000","-16","experiment","51","odd","58139.85949999187","NA","42433.964099996956","137717.70129998913","NA","52026.012199989054","12287.984599999618","276574.0094000066","NA","NA","277076.9522000046","NA","12311.319100001128","NA","NA","NA","NA","NA","NA","NA","NA","NA","117230.08409998147","NA","277077.07470000605","151322.56689999485","276569.7269999946","NA","151317.90779999574","NA","117224.88490000251","278629.1554000054","NA","58135.56399999652","NA","NA","New experiment","19","105594.42799995304","33","1024"
"55","NA","55","3167","3167","#3d3846","psycho","NA","0","undefined","undefined","0","right","0","0","0","0","0","0","0","33","NA","0","33","NA","0","NA","NA","NA","0","NA","NA","NA","NA","NA","0","NA","33","0","33","0","0","0","0","33","0","0","0","NA","Sun Oct 15 19:35:47 2023","50","The main experiment item","yes","CogPsy_Assignment_With_Instruction.osexp","C:/Users/franc/OneDrive/Documents","no","mono","no","18","no","white","no","Professional and Technical Occupations","yes","768","C:/Users/franc/OneDrive/Documents/subject-51.csv","real","Melodramatic Milgram","4.0.5","genuine","left","return","NA","NA","return","NA","left","2112.856499996269","5071.680299995933","NA","NA","30119.104199984577","NA","2112.856499996269","NA","NA","2","real_20","1024","2","48000","-16","experiment","51","odd","58139.85949999187","NA","42433.964099996956","137717.70129998913","NA","52026.012199989054","12287.984599999618","278736.71319999266","NA","NA","279239.77680000826","NA","12311.319100001128","NA","NA","NA","NA","NA","NA","NA","NA","NA","117230.08409998147","NA","279239.9096000008","151322.56689999485","278732.8823999851","NA","151317.90779999574","NA","117224.88490000251","281353.2144000055","NA","58135.56399999652","NA","NA","New experiment","19","107707.28449994931","34","1024"
"54","NA","54","3134","3134","#3d3846","psycho","NA","0","undefined","undefined","0","left","0","0","0","0","0","0","0","34","NA","0","34","NA","0","NA","NA","NA","0","NA","NA","NA","NA","NA","0","NA","34","0","34","0","0","0","0","34","0","0","0","NA","Sun Oct 15 19:35:47 2023","20","The main experiment item","yes","CogPsy_Assignment_With_Instruction.osexp","C:/Users/franc/OneDrive/Documents","no","mono","no","18","no","white","no","Professional and Technical Occupations","yes","768","C:/Users/franc/OneDrive/Documents/subject-51.csv","fake","Melodramatic Milgram","4.0.5","bottom_left","right","return","NA","NA","return","NA","right","1985.2258999890182","5071.680299995933","NA","NA","30119.104199984577","NA","1985.2258999890182","NA","NA","2","fake_1_20","1024","2","48000","-16","experiment","51","odd","58139.85949999187","NA","42433.964099996956","137717.70129998913","NA","52026.012199989054","12287.984599999618","281459.6722999995","NA","NA","281962.8383999807","NA","12311.319100001128","NA","NA","NA","NA","NA","NA","NA","NA","NA","117230.08409998147","NA","281962.9891999939","151322.56689999485","281455.93130000634","NA","151317.90779999574","NA","117224.88490000251","283948.6772999808","NA","58135.56399999652","NA","NA","New experiment","19","109692.51039993833","35","1024"
"52","NA","52","3091","3091","#3d3846","psycho","NA","0","undefined","undefined","0","left","0","0","0","0","0","0","0","35","NA","0","35","NA","0","NA","NA","NA","0","NA","NA","NA","NA","NA","0","NA","35","0","35","0","0","0","0","35","0","0","0","NA","Sun Oct 15 19:35:47 2023","50","The main experiment item","yes","CogPsy_Assignment_With_Instruction.osexp","C:/Users/franc/OneDrive/Documents","no","mono","no","18","no","white","no","Professional and Technical Occupations","yes","768","C:/Users/franc/OneDrive/Documents/subject-51.csv","fake","Melodramatic Milgram","4.0.5","PurpleDenomination","right","return","NA","NA","return","NA","right","1597.949899995001","5071.680299995933","NA","NA","30119.104199984577","NA","1597.949899995001","NA","NA","2","fake_2_50","1024","2","48000","-16","experiment","51","odd","58139.85949999187","NA","42433.964099996956","137717.70129998913","NA","52026.012199989054","12287.984599999618","284060.37960000685","NA","NA","284563.96430000314","NA","12311.319100001128","NA","NA","NA","NA","NA","NA","NA","NA","NA","117230.08409998147","NA","284564.1056000022","151322.56689999485","284056.4183999959","NA","151317.90779999574","NA","117224.88490000251","286162.51799999736","NA","58135.56399999652","NA","NA","New experiment","19","111290.46029993333","36","1024"
"54","NA","54","3062","3062","#3d3846","psycho","NA","1","undefined","undefined","1","left","0","0","0","0","0","0","0","36","NA","0","36","NA","0","NA","NA","NA","0","NA","NA","NA","NA","NA","0","NA","36","0","36","0","0","0","0","36","0","0","0","NA","Sun Oct 15 19:35:47 2023","50","The main experiment item","yes","CogPsy_Assignment_With_Instruction.osexp","C:/Users/franc/OneDrive/Documents","no","mono","no","18","no","white","no","Professional and Technical Occupations","yes","768","C:/Users/franc/OneDrive/Documents/subject-51.csv","fake","Melodramatic Milgram","4.0.5","bottom_left","left","return","NA","NA","return","NA","left","2017.7248000109103","5071.680299995933","NA","NA","30119.104199984577","NA","2017.7248000109103","NA","NA","2","fake_1_50","1024","2","48000","-16","experiment","51","odd","58139.85949999187","NA","42433.964099996956","137717.70129998913","NA","52026.012199989054","12287.984599999618","286266.2533999828","NA","NA","286769.8533000075","NA","12311.319100001128","NA","NA","NA","NA","NA","NA","NA","NA","NA","117230.08409998147","NA","286769.95459999307","151322.56689999485","286262.25239998894","NA","151317.90779999574","NA","117224.88490000251","288788.8213999977","NA","58135.56399999652","NA","NA","New experiment","20","113308.18509994424","37","1024"
"55","NA","55","3021","3021","#3d3846","psycho","NA","1","undefined","undefined","1","right","0","0","0","0","0","0","0","37","NA","0","37","NA","0","NA","NA","NA","0","NA","NA","NA","NA","NA","0","NA","37","0","37","0","0","0","0","37","0","0","0","NA","Sun Oct 15 19:35:47 2023","50","The main experiment item","yes","CogPsy_Assignment_With_Instruction.osexp","C:/Users/franc/OneDrive/Documents","no","mono","no","18","no","white","no","Professional and Technical Occupations","yes","768","C:/Users/franc/OneDrive/Documents/subject-51.csv","real","Melodramatic Milgram","4.0.5","photo_2","right","return","NA","NA","return","NA","right","1509.462000016356","5071.680299995933","NA","NA","30119.104199984577","NA","1509.462000016356","NA","NA","2","real_50","1024","2","48000","-16","experiment","51","odd","58139.85949999187","NA","42433.964099996956","137717.70129998913","NA","52026.012199989054","12287.984599999618","288904.0412000031","NA","NA","289406.64370000013","NA","12311.319100001128","NA","NA","NA","NA","NA","NA","NA","NA","NA","117230.08409998147","NA","289406.7914999905","151322.56689999485","288900.5683999858","NA","151317.90779999574","NA","117224.88490000251","290916.7113000003","NA","58135.56399999652","NA","NA","New experiment","21","114817.6470999606","38","1024"
"53","NA","53","2978","2978","#3d3846","psycho","NA","0","undefined","undefined","0","left","0","0","0","0","0","0","0","38","NA","0","38","NA","0","NA","NA","NA","0","NA","NA","NA","NA","NA","0","NA","38","0","38","0","0","0","0","38","0","0","0","NA","Sun Oct 15 19:35:47 2023","50","The main experiment item","yes","CogPsy_Assignment_With_Instruction.osexp","C:/Users/franc/OneDrive/Documents","no","mono","no","18","no","white","no","Professional and Technical Occupations","yes","768","C:/Users/franc/OneDrive/Documents/subject-51.csv","fake","Melodramatic Milgram","4.0.5","NoNumOnThread_BlurryWatermark","right","return","NA","NA","return","NA","right","1344.4342000002507","5071.680299995933","NA","NA","30119.104199984577","NA","1344.4342000002507","NA","NA","2","fake_2_50","1024","2","48000","-16","experiment","51","odd","58139.85949999187","NA","42433.964099996956","137717.70129998913","NA","52026.012199989054","12287.984599999618","291036.6374999867","NA","NA","291539.6211000043","NA","12311.319100001128","NA","NA","NA","NA","NA","NA","NA","NA","NA","117230.08409998147","NA","291539.7817000048","151322.56689999485","291033.0926000024","NA","151317.90779999574","NA","117224.88490000251","292884.6712000086","NA","58135.56399999652","NA","NA","New experiment","21","116162.08129996085","39","1024"
"55","NA","55","3009","3009","#3d3846","psycho","NA","1","undefined","undefined","1","left","0","0","0","0","0","0","0","39","NA","0","39","NA","0","NA","NA","NA","0","NA","NA","NA","NA","NA","0","NA","39","0","39","0","0","0","0","39","0","0","0","NA","Sun Oct 15 19:35:47 2023","20","The main experiment item","yes","CogPsy_Assignment_With_Instruction.osexp","C:/Users/franc/OneDrive/Documents","no","mono","no","18","no","white","no","Professional and Technical Occupations","yes","768","C:/Users/franc/OneDrive/Documents/subject-51.csv","fake","Melodramatic Milgram","4.0.5","BadInk","left","return","NA","NA","return","NA","left","4222.79269999126","5071.680299995933","NA","NA","30119.104199984577","NA","4222.79269999126","NA","NA","2","fake_20","1024","2","48000","-16","experiment","51","odd","58139.85949999187","NA","42433.964099996956","137717.70129998913","NA","52026.012199989054","12287.984599999618","293008.8628999947","NA","NA","293511.6813000059","NA","12311.319100001128","NA","NA","NA","NA","NA","NA","NA","NA","NA","117230.08409998147","NA","293511.80629999726","151322.56689999485","293005.2934999985","NA","151317.90779999574","NA","117224.88490000251","297735.0491999823","NA","58135.56399999652","NA","NA","New experiment","22","120384.8739999521","40","1024"
"56","NA","56","2971","2971","#3d3846","psycho","NA","1","undefined","undefined","1","left","0","0","0","0","0","0","0","40","NA","0","40","NA","0","NA","NA","NA","0","NA","NA","NA","NA","NA","0","NA","40","0","40","0","0","0","0","40","0","0","0","NA","Sun Oct 15 19:35:47 2023","20","The main experiment item","yes","CogPsy_Assignment_With_Instruction.osexp","C:/Users/franc/OneDrive/Documents","no","mono","no","18","no","white","no","Professional and Technical Occupations","yes","768","C:/Users/franc/OneDrive/Documents/subject-51.csv","fake","Melodramatic Milgram","4.0.5","DullHologram","left","return","NA","NA","return","NA","left","1466.1863000073936","5071.680299995933","NA","NA","30119.104199984577","NA","1466.1863000073936","NA","NA","2","fake_20","1024","2","48000","-16","experiment","51","odd","58139.85949999187","NA","42433.964099996956","137717.70129998913","NA","52026.012199989054","12287.984599999618","297857.7108999889","NA","NA","298360.6429999927","NA","12311.319100001128","NA","NA","NA","NA","NA","NA","NA","NA","NA","117230.08409998147","NA","298360.7880999916","151322.56689999485","297854.09789998084","NA","151317.90779999574","NA","117224.88490000251","299827.4623999896","NA","58135.56399999652","NA","NA","New experiment","23","121851.0602999595","41","1024"
"57","NA","57","2938","2938","#3d3846","psycho","NA","1","undefined","undefined","1","left","0","0","0","0","0","0","0","41","NA","0","41","NA","0","NA","NA","NA","0","NA","NA","NA","NA","NA","0","NA","41","0","41","0","0","0","0","41","0","0","0","NA","Sun Oct 15 19:35:47 2023","20","The main experiment item","yes","CogPsy_Assignment_With_Instruction.osexp","C:/Users/franc/OneDrive/Documents","no","mono","no","18","no","white","no","Professional and Technical Occupations","yes","768","C:/Users/franc/OneDrive/Documents/subject-51.csv","fake","Melodramatic Milgram","4.0.5","DullHologram2","left","return","NA","NA","return","NA","left","1549.270700023044","5071.680299995933","NA","NA","30119.104199984577","NA","1549.270700023044","NA","NA","2","fake_20","1024","2","48000","-16","experiment","51","odd","58139.85949999187","NA","42433.964099996956","137717.70129998913","NA","52026.012199989054","12287.984599999618","299953.2152999891","NA","NA","300456.31010000943","NA","12311.319100001128","NA","NA","NA","NA","NA","NA","NA","NA","NA","117230.08409998147","NA","300456.45539998077","151322.56689999485","299949.56449998426","NA","151317.90779999574","NA","117224.88490000251","302006.21729998966","NA","58135.56399999652","NA","NA","New experiment","24","123400.33099998254","42","1024"
"58","NA","58","2938","2938","#3d3846","psycho","NA","1","undefined","undefined","1","left","0","0","0","0","0","0","0","42","NA","0","42","NA","0","NA","NA","NA","0","NA","NA","NA","NA","NA","0","NA","42","0","42","0","0","0","0","42","0","0","0","NA","Sun Oct 15 19:35:47 2023","50","The main experiment item","yes","CogPsy_Assignment_With_Instruction.osexp","C:/Users/franc/OneDrive/Documents","no","mono","no","18","no","white","no","Professional and Technical Occupations","yes","768","C:/Users/franc/OneDrive/Documents/subject-51.csv","fake","Melodramatic Milgram","4.0.5","BadInk","left","return","NA","NA","return","NA","left","2965.6731000286527","5071.680299995933","NA","NA","30119.104199984577","NA","2965.6731000286527","NA","NA","2","fake_2_50","1024","2","48000","-16","experiment","51","odd","58139.85949999187","NA","42433.964099996956","137717.70129998913","NA","52026.012199989054","12287.984599999618","302141.2244999956","NA","NA","302644.43879999453","NA","12311.319100001128","NA","NA","NA","NA","NA","NA","NA","NA","NA","117230.08409998147","NA","302644.55929998076","151322.56689999485","302137.5756000052","NA","151317.90779999574","NA","117224.88490000251","305610.8317000035","NA","58135.56399999652","NA","NA","New experiment","25","126366.0041000112","43","1024"
"59","NA","59","2905","2905","#3d3846","psycho","NA","1","undefined","undefined","1","left","0","0","0","0","0","0","0","43","NA","0","43","NA","0","NA","NA","NA","0","NA","NA","NA","NA","NA","0","NA","43","0","43","0","0","0","0","43","0","0","0","NA","Sun Oct 15 19:35:47 2023","20","The main experiment item","yes","CogPsy_Assignment_With_Instruction.osexp","C:/Users/franc/OneDrive/Documents","no","mono","no","18","no","white","no","Professional and Technical Occupations","yes","768","C:/Users/franc/OneDrive/Documents/subject-51.csv","fake","Melodramatic Milgram","4.0.5","BrownDenomination","left","return","NA","NA","return","NA","left","1458.8398000050802","5071.680299995933","NA","NA","30119.104199984577","NA","1458.8398000050802","NA","NA","2","fake_20","1024","2","48000","-16","experiment","51","odd","58139.85949999187","NA","42433.964099996956","137717.70129998913","NA","52026.012199989054","12287.984599999618","305731.4331000089","NA","NA","306234.7263999982","NA","12311.319100001128","NA","NA","NA","NA","NA","NA","NA","NA","NA","117230.08409998147","NA","306234.8171999911","151322.56689999485","305727.7155999909","NA","151317.90779999574","NA","117224.88490000251","307694.13650000934","NA","58135.56399999652","NA","NA","New experiment","26","127824.84390001628","44","1024"
"60","NA","60","2877","2877","#3d3846","psycho","NA","1","undefined","undefined","1","left","0","0","0","0","0","0","0","44","NA","0","44","NA","0","NA","NA","NA","0","NA","NA","NA","NA","NA","0","NA","44","0","44","0","0","0","0","44","0","0","0","NA","Sun Oct 15 19:35:47 2023","20","The main experiment item","yes","CogPsy_Assignment_With_Instruction.osexp","C:/Users/franc/OneDrive/Documents","no","mono","no","18","no","white","no","Professional and Technical Occupations","yes","768","C:/Users/franc/OneDrive/Documents/subject-51.csv","fake","Melodramatic Milgram","4.0.5","PurpleDenomination","left","return","NA","NA","return","NA","left","1667.360199993709","5071.680299995933","NA","NA","30119.104199984577","NA","1667.360199993709","NA","NA","2","fake_20","1024","2","48000","-16","experiment","51","odd","58139.85949999187","NA","42433.964099996956","137717.70129998913","NA","52026.012199989054","12287.984599999618","307817.02650000807","NA","NA","308320.38019999163","NA","12311.319100001128","NA","NA","NA","NA","NA","NA","NA","NA","NA","117230.08409998147","NA","308320.4876999953","151322.56689999485","307813.33430000814","NA","151317.90779999574","NA","117224.88490000251","309988.3404999855","NA","58135.56399999652","NA","NA","New experiment","27","129492.20410000999","45","1024"
"60","NA","60","2841","2841","#3d3846","psycho","NA","1","undefined","undefined","1","right","0","0","0","0","0","0","0","45","NA","0","45","NA","0","NA","NA","NA","0","NA","NA","NA","NA","NA","0","NA","45","0","45","0","0","0","0","45","0","0","0","NA","Sun Oct 15 19:35:47 2023","20","The main experiment item","yes","CogPsy_Assignment_With_Instruction.osexp","C:/Users/franc/OneDrive/Documents","no","mono","no","18","no","white","no","Professional and Technical Occupations","yes","768","C:/Users/franc/OneDrive/Documents/subject-51.csv","real","Melodramatic Milgram","4.0.5","photo","right","return","NA","NA","return","NA","right","1224.4821999920532","5071.680299995933","NA","NA","30119.104199984577","NA","1224.4821999920532","NA","NA","2","real_20","1024","2","48000","-16","experiment","51","odd","58139.85949999187","NA","42433.964099996956","137717.70129998913","NA","52026.012199989054","12287.984599999618","310127.7454000083","NA","NA","310630.7783999946","NA","12311.319100001128","NA","NA","NA","NA","NA","NA","NA","NA","NA","117230.08409998147","NA","310630.93189999927","151322.56689999485","310123.7470000051","NA","151317.90779999574","NA","117224.88490000251","311855.925699987","NA","58135.56399999652","NA","NA","New experiment","28","130716.68630000204","46","1024"
"61","NA","61","2810","2810","#3d3846","psycho","NA","1","undefined","undefined","1","left","0","0","0","0","0","0","0","46","NA","0","46","NA","0","NA","NA","NA","0","NA","NA","NA","NA","NA","0","NA","46","0","46","0","0","0","0","46","0","0","0","NA","Sun Oct 15 19:35:47 2023","20","The main experiment item","yes","CogPsy_Assignment_With_Instruction.osexp","C:/Users/franc/OneDrive/Documents","no","mono","no","18","no","white","no","Professional and Technical Occupations","yes","768","C:/Users/franc/OneDrive/Documents/subject-51.csv","fake","Melodramatic Milgram","4.0.5","PurpleDenomination","left","return","NA","NA","return","NA","left","1359.7219999937806","5071.680299995933","NA","NA","30119.104199984577","NA","1359.7219999937806","NA","NA","2","fake_20","1024","2","48000","-16","experiment","51","odd","58139.85949999187","NA","42433.964099996956","137717.70129998913","NA","52026.012199989054","12287.984599999618","311975.0633999938","NA","NA","312478.56409999076","NA","12311.319100001128","NA","NA","NA","NA","NA","NA","NA","NA","NA","117230.08409998147","NA","312478.6782999872","151322.56689999485","311971.398099995","NA","151317.90779999574","NA","117224.88490000251","313838.9809000073","NA","58135.56399999652","NA","NA","New experiment","29","132076.40829999582","47","1024"
"60","NA","60","2789","2789","#3d3846","psycho","NA","0","undefined","undefined","0","right","0","0","0","0","0","0","0","47","NA","0","47","NA","0","NA","NA","NA","0","NA","NA","NA","NA","NA","0","NA","47","0","47","0","0","0","0","47","0","0","0","NA","Sun Oct 15 19:35:47 2023","50","The main experiment item","yes","CogPsy_Assignment_With_Instruction.osexp","C:/Users/franc/OneDrive/Documents","no","mono","no","18","no","white","no","Professional and Technical Occupations","yes","768","C:/Users/franc/OneDrive/Documents/subject-51.csv","real","Melodramatic Milgram","4.0.5","genuine","left","return","NA","NA","return","NA","left","1814.9521999876015","5071.680299995933","NA","NA","30119.104199984577","NA","1814.9521999876015","NA","NA","2","real_20","1024","2","48000","-16","experiment","51","odd","58139.85949999187","NA","42433.964099996956","137717.70129998913","NA","52026.012199989054","12287.984599999618","313945.11629999033","NA","NA","314448.0307000049","NA","12311.319100001128","NA","NA","NA","NA","NA","NA","NA","NA","NA","117230.08409998147","NA","314448.1597999984","151322.56689999485","313941.33450000663","NA","151317.90779999574","NA","117224.88490000251","316263.73119998607","NA","58135.56399999652","NA","NA","New experiment","29","133891.36049998342","48","1024"
"59","NA","59","2761","2761","#3d3846","psycho","NA","0","undefined","undefined","0","right","0","0","0","0","0","0","0","48","NA","0","48","NA","0","NA","NA","NA","0","NA","NA","NA","NA","NA","0","NA","48","0","48","0","0","0","0","48","0","0","0","NA","Sun Oct 15 19:35:47 2023","50","The main experiment item","yes","CogPsy_Assignment_With_Instruction.osexp","C:/Users/franc/OneDrive/Documents","no","mono","no","18","no","white","no","Professional and Technical Occupations","yes","768","C:/Users/franc/OneDrive/Documents/subject-51.csv","real","Melodramatic Milgram","4.0.5","genuine","left","return","NA","NA","return","NA","left","1424.984899989795","5071.680299995933","NA","NA","30119.104199984577","NA","1424.984899989795","NA","NA","2","real_50","1024","2","48000","-16","experiment","51","odd","58139.85949999187","NA","42433.964099996956","137717.70129998913","NA","52026.012199989054","12287.984599999618","316367.98529999214","NA","NA","316871.17249998846","NA","12311.319100001128","NA","NA","NA","NA","NA","NA","NA","NA","NA","117230.08409998147","NA","316871.32030000794","151322.56689999485","316364.1564999998","NA","151317.90779999574","NA","117224.88490000251","318296.94390000077","NA","58135.56399999652","NA","NA","New experiment","29","135316.34539997322","49","1024"
"60","NA","60","2834","2834","#3d3846","psycho","NA","1","undefined","undefined","1","left","0","0","0","0","0","0","0","49","NA","0","49","NA","0","NA","NA","NA","0","NA","NA","NA","NA","NA","0","NA","49","0","49","0","0","0","0","49","0","0","0","NA","Sun Oct 15 19:35:47 2023","50","The main experiment item","yes","CogPsy_Assignment_With_Instruction.osexp","C:/Users/franc/OneDrive/Documents","no","mono","no","18","no","white","no","Professional and Technical Occupations","yes","768","C:/Users/franc/OneDrive/Documents/subject-51.csv","fake","Melodramatic Milgram","4.0.5","BadInk","left","return","NA","NA","return","NA","left","6410.1632999954745","5071.680299995933","NA","NA","30119.104199984577","NA","6410.1632999954745","NA","NA","2","fake_2_50","1024","2","48000","-16","experiment","51","odd","58139.85949999187","NA","42433.964099996956","137717.70129998913","NA","52026.012199989054","12287.984599999618","318425.93379999744","NA","NA","318929.4752999849","NA","12311.319100001128","NA","NA","NA","NA","NA","NA","NA","NA","NA","117230.08409998147","NA","318929.5846000023","151322.56689999485","318421.17159999907","NA","151317.90779999574","NA","117224.88490000251","325340.2614000079","NA","58135.56399999652","NA","NA","New experiment","30","141726.5086999687","50","1024"
"60","NA","60","2805","2805","#3d3846","psycho","NA","1","undefined","undefined","1","left","0","0","0","0","0","0","0","50","NA","0","50","NA","0","NA","NA","NA","0","NA","NA","NA","NA","NA","0","NA","50","0","50","0","0","0","0","50","0","0","0","NA","Sun Oct 15 19:35:47 2023","20","The main experiment item","yes","CogPsy_Assignment_With_Instruction.osexp","C:/Users/franc/OneDrive/Documents","no","mono","no","18","no","white","no","Professional and Technical Occupations","yes","768","C:/Users/franc/OneDrive/Documents/subject-51.csv","fake","Melodramatic Milgram","4.0.5","DullHologram2","left","return","NA","NA","return","NA","left","1353.9365000033285","5071.680299995933","NA","NA","30119.104199984577","NA","1353.9365000033285","NA","NA","2","fake_20","1024","2","48000","-16","experiment","51","odd","58139.85949999187","NA","42433.964099996956","137717.70129998913","NA","52026.012199989054","12287.984599999618","325460.9117000073","NA","NA","325963.66099998704","NA","12311.319100001128","NA","NA","NA","NA","NA","NA","NA","NA","NA","117230.08409998147","NA","325963.811499998","151322.56689999485","325457.0806999982","NA","151317.90779999574","NA","117224.88490000251","327318.25389998266","NA","58135.56399999652","NA","NA","New experiment","31","143080.44519997202","51","1024"
"59","NA","59","2793","2793","#3d3846","psycho","NA","0","undefined","undefined","0","right","0","0","0","0","0","0","0","51","NA","0","51","NA","0","NA","NA","NA","0","NA","NA","NA","NA","NA","0","NA","51","0","51","0","0","0","0","51","0","0","0","NA","Sun Oct 15 19:35:47 2023","20","The main experiment item","yes","CogPsy_Assignment_With_Instruction.osexp","C:/Users/franc/OneDrive/Documents","no","mono","no","18","no","white","no","Professional and Technical Occupations","yes","768","C:/Users/franc/OneDrive/Documents/subject-51.csv","real","Melodramatic Milgram","4.0.5","genuine","left","return","NA","NA","return","NA","left","2180.8270000037737","5071.680299995933","NA","NA","30119.104199984577","NA","2180.8270000037737","NA","NA","2","real_20","1024","2","48000","-16","experiment","51","odd","58139.85949999187","NA","42433.964099996956","137717.70129998913","NA","52026.012199989054","12287.984599999618","327425.2310000011","NA","NA","327928.07580000954","NA","12311.319100001128","NA","NA","NA","NA","NA","NA","NA","NA","NA","117230.08409998147","NA","327928.20130000473","151322.56689999485","327421.29430000205","NA","151317.90779999574","NA","117224.88490000251","330109.5373999851","NA","58135.56399999652","NA","NA","New experiment","31","145261.2721999758","52","1024"
"60","NA","60","2757","2757","#3d3846","psycho","NA","1","undefined","undefined","1","left","0","0","0","0","0","0","0","52","NA","0","52","NA","0","NA","NA","NA","0","NA","NA","NA","NA","NA","0","NA","52","0","52","0","0","0","0","52","0","0","0","NA","Sun Oct 15 19:35:47 2023","50","The main experiment item","yes","CogPsy_Assignment_With_Instruction.osexp","C:/Users/franc/OneDrive/Documents","no","mono","no","18","no","white","no","Professional and Technical Occupations","yes","768","C:/Users/franc/OneDrive/Documents/subject-51.csv","fake","Melodramatic Milgram","4.0.5","GreyDenomination","left","return","NA","NA","return","NA","left","879.8222000186797","5071.680299995933","NA","NA","30119.104199984577","NA","879.8222000186797","NA","NA","2","fake_2_50","1024","2","48000","-16","experiment","51","odd","58139.85949999187","NA","42433.964099996956","137717.70129998913","NA","52026.012199989054","12287.984599999618","330231.9157999882","NA","NA","330735.162099998","NA","12311.319100001128","NA","NA","NA","NA","NA","NA","NA","NA","NA","117230.08409998147","NA","330735.3050999809","151322.56689999485","330228.4328999813","NA","151317.90779999574","NA","117224.88490000251","331615.6251000066","NA","58135.56399999652","NA","NA","New experiment","32","146141.09439999447","53","1024"
"61","NA","61","2739","2739","#3d3846","psycho","NA","1","undefined","undefined","1","left","0","0","0","0","0","0","0","53","NA","0","53","NA","0","NA","NA","NA","0","NA","NA","NA","NA","NA","0","NA","53","0","53","0","0","0","0","53","0","0","0","NA","Sun Oct 15 19:35:47 2023","20","The main experiment item","yes","CogPsy_Assignment_With_Instruction.osexp","C:/Users/franc/OneDrive/Documents","no","mono","no","18","no","white","no","Professional and Technical Occupations","yes","768","C:/Users/franc/OneDrive/Documents/subject-51.csv","fake","Melodramatic Milgram","4.0.5","BadInk2","left","return","NA","NA","return","NA","left","1791.9546000193805","5071.680299995933","NA","NA","30119.104199984577","NA","1791.9546000193805","NA","NA","2","fake_20","1024","2","48000","-16","experiment","51","odd","58139.85949999187","NA","42433.964099996956","137717.70129998913","NA","52026.012199989054","12287.984599999618","331745.1835999964","NA","NA","332247.9131","NA","12311.319100001128","NA","NA","NA","NA","NA","NA","NA","NA","NA","117230.08409998147","NA","332248.06049998733","151322.56689999485","331741.581099981","NA","151317.90779999574","NA","117224.88490000251","334040.54250000627","NA","58135.56399999652","NA","NA","New experiment","33","147933.04900001385","54","1024"
"61","NA","61","2739","2739","#3d3846","psycho","NA","1","undefined","undefined","1","left","0","0","0","0","0","0","0","53","NA","0","53","NA","0","NA","NA","NA","0","NA","NA","NA","NA","NA","0","NA","53","0","53","0","0","0","0","53","0","0","0","NA","Sun Oct 15 19:35:47 2023","20","The main experiment item","yes","CogPsy_Assignment_With_Instruction.osexp","C:/Users/franc/OneDrive/Documents","no","mono","no","18","no","white","no","Security thread, watermark, holographic strip","yes","768","C:/Users/franc/OneDrive/Documents/subject-51.csv","fake","Melodramatic Milgram","4.0.5","BadInk2","Security thread, watermark, holographic strip","return","NA","NA","return","NA","left","1791.9546000193805","5071.680299995933","NA","NA","30119.104199984577","NA","1791.9546000193805","NA","NA","2","fake_20","1024","2","48000","-16","experiment","51","odd","58139.85949999187","NA","42433.964099996956","137717.70129998913","NA","52026.012199989054","12287.984599999618","331745.1835999964","NA","NA","332247.9131","NA","12311.319100001128","NA","NA","NA","457671.5525999898","NA","NA","NA","NA","NA","117230.08409998147","NA","332248.06049998733","151322.56689999485","331741.581099981","NA","151317.90779999574","334103.5073999956","117224.88490000251","334040.54250000627","NA","58135.56399999652","NA","NA","New experiment","33","147933.04900001385","54","1024"
"61","NA","61","2739","2739","#3d3846","psycho","NA","1","undefined","undefined","1","left","0","0","0","0","0","0","0","53","NA","0","53","NA","0","NA","NA","NA","0","NA","NA","NA","NA","NA","0","NA","53","0","53","0","0","0","0","53","0","0","0","NA","Sun Oct 15 19:35:47 2023","20","The main experiment item","yes","CogPsy_Assignment_With_Instruction.osexp","C:/Users/franc/OneDrive/Documents","no","mono","no","18","no","white","no","Ok","yes","768","C:/Users/franc/OneDrive/Documents/subject-51.csv","fake","Melodramatic Milgram","4.0.5","BadInk2","Silver strip (security thread);UV hologram;Colors of text;Watermark;Ink quality","return","NA","NA","return","NA","left","1791.9546000193805","5071.680299995933","NA","NA","30119.104199984577","NA","1791.9546000193805","NA","NA","2","fake_20","1024","2","48000","-16","experiment","51","odd","58139.85949999187","NA","42433.964099996956","137717.70129998913","NA","52026.012199989054","12287.984599999618","331745.1835999964","NA","NA","332247.9131","NA","12311.319100001128","NA","NA","NA","457671.5525999898","NA","NA","NA","NA","NA","117230.08409998147","NA","332248.06049998733","151322.56689999485","331741.581099981","NA","151317.90779999574","334103.5073999956","117224.88490000251","334040.54250000627","NA","58135.56399999652","507739.493400004","NA","New experiment","33","147933.04900001385","54","1024"
