"acc","accept_status","accuracy","average_response_time","avg_rt","background","canvas_backend","checkbox_status","correct","correct_consent_sketchpad","correct_instruction_sketchpad","correct_new_keyboard_response","correct_response","count_age_form","count_checkbox_security_form","count_consent_sketchpad","count_country_logger","count_eurozone_form","count_eurozone_logger","count_experiment","count_fixation_dots","count_getting_started","count_goodbye_sketchpad","count_images_sketchpad","count_information_display_sketchpad","count_instruction_sketchpad","count_new_1_form_base","count_new_1_form_text_input","count_new_1_sketchpad","count_new_2_logger","count_new_4_form_multiple_choice","count_new_form_base","count_new_form_consent","count_new_form_multiple_choice","count_new_form_text_display","count_new_form_text_input","count_new_inline_script","count_new_keyboard_response","count_new_loop","count_new_sequence","count_occupation_form","count_occupation_logger","count_open_security_input_form","count_personal_data_logger","count_response_logger","count_schooling_level_form","count_schooling_logger","count_security_feature_logger","count_welcome","datetime","denomination","description","disable_garbage_collection","experiment_file","experiment_path","font_bold","font_family","font_italic","font_size","font_underline","foreground","form_clicks","form_response","fullscreen","height","logfile","note_type","opensesame_codename","opensesame_version","reason","response","response_consent_sketchpad","response_goodbye_sketchpad","response_information_display_sketchpad","response_instruction_sketchpad","response_new_1_sketchpad","response_new_keyboard_response","response_time","response_time_consent_sketchpad","response_time_goodbye_sketchpad","response_time_information_display_sketchpad","response_time_instruction_sketchpad","response_time_new_1_sketchpad","response_time_new_keyboard_response","response_time_welcome","response_welcome","round_decimals","show","sound_buf_size","sound_channels","sound_freq","sound_sample_size","start","subject_nr","subject_parity","time_age_form","time_checkbox_security_form","time_consent_sketchpad","time_country_logger","time_eurozone_form","time_eurozone_logger","time_experiment","time_fixation_dots","time_getting_started","time_goodbye_sketchpad","time_images_sketchpad","time_information_display_sketchpad","time_instruction_sketchpad","time_new_1_form_base","time_new_1_form_text_input","time_new_1_sketchpad","time_new_2_logger","time_new_4_form_multiple_choice","time_new_form_base","time_new_form_consent","time_new_form_multiple_choice","time_new_form_text_display","time_new_form_text_input","time_new_inline_script","time_new_keyboard_response","time_new_loop","time_new_sequence","time_occupation_form","time_occupation_logger","time_open_security_input_form","time_personal_data_logger","time_response_logger","time_schooling_level_form","time_schooling_logger","time_security_feature_logger","time_welcome","title","total_correct","total_response_time","total_responses","width"
"undefined","NA","undefined","undefined","undefined","#3d3846","psycho","NA","undefined","undefined","undefined","NA","NA","0","0","0","0","0","0","0","NA","NA","0","NA","0","0","NA","NA","NA","0","NA","NA","NA","NA","NA","0","NA","NA","0","NA","0","0","0","0","NA","0","0","0","NA","Sun Oct 15 14:29:50 2023","NA","The main experiment item","yes","CogPsy_Assignment_With_Instruction.osexp","/Users/andrasjoos/Documents/AI Masters/Period 1/Cognitive Psychology/Research project","no","mono","no","18","no","white","no","Yes","yes","768","/Users/andrasjoos/Documents/AI Masters/Period 1/Cognitive Psychology/Research project/results/subject-1.csv","NA","Melodramatic Milgram","4.0.5","NA","Yes","right","NA","NA","right","NA","NA","5363.633583998308","5363.633583998308","NA","NA","28522.920624993276","NA","NA","NA","NA","2","NA","1024","2","48000","-16","experiment","1","odd","NA","NA","34928.55587502709","NA","NA","47096.449792035855","6132.6068750349805","NA","NA","NA","NA","NA","6176.136167021468","NA","NA","NA","NA","NA","NA","NA","NA","NA","NA","NA","NA","NA","NA","NA","NA","NA","NA","NA","NA","NA","NA","NA","New experiment","0","0","0","1024"
"undefined","NA","undefined","undefined","undefined","#3d3846","psycho","NA","undefined","undefined","undefined","NA","NA","0","0","0","0","0","0","0","NA","NA","0","NA","0","0","NA","NA","NA","0","NA","NA","NA","NA","NA","0","NA","NA","0","NA","0","0","0","0","NA","0","0","0","NA","Sun Oct 15 14:29:50 2023","NA","The main experiment item","yes","CogPsy_Assignment_With_Instruction.osexp","/Users/andrasjoos/Documents/AI Masters/Period 1/Cognitive Psychology/Research project","no","mono","no","18","no","white","no","Bachelors","yes","768","/Users/andrasjoos/Documents/AI Masters/Period 1/Cognitive Psychology/Research project/results/subject-1.csv","NA","Melodramatic Milgram","4.0.5","NA","Bachelors","right","NA","NA","right","NA","NA","5363.633583998308","5363.633583998308","NA","NA","28522.920624993276","NA","NA","NA","NA","2","NA","1024","2","48000","-16","experiment","1","odd","NA","NA","34928.55587502709","NA","NA","47096.449792035855","6132.6068750349805","NA","NA","NA","NA","NA","6176.136167021468","NA","NA","NA","NA","NA","NA","NA","NA","NA","NA","NA","NA","NA","NA","NA","NA","NA","NA","NA","NA","69450.71100001223","NA","NA","New experiment","0","0","0","1024"
"undefined","NA","undefined","undefined","undefined","#3d3846","psycho","NA","undefined","undefined","undefined","NA","NA","0","0","0","0","0","0","0","NA","NA","0","NA","0","0","NA","NA","NA","0","NA","NA","NA","NA","NA","0","NA","NA","0","NA","0","0","0","0","NA","0","0","0","NA","Sun Oct 15 14:29:50 2023","NA","The main experiment item","yes","CogPsy_Assignment_With_Instruction.osexp","/Users/andrasjoos/Documents/AI Masters/Period 1/Cognitive Psychology/Research project","no","mono","no","18","no","white","no","22","yes","768","/Users/andrasjoos/Documents/AI Masters/Period 1/Cognitive Psychology/Research project/results/subject-1.csv","NA","Melodramatic Milgram","4.0.5","NA","22","right","NA","NA","right","NA","NA","5363.633583998308","5363.633583998308","NA","NA","28522.920624993276","NA","NA","NA","NA","2","NA","1024","2","48000","-16","experiment","1","odd","69452.95683405129","NA","34928.55587502709","NA","NA","47096.449792035855","6132.6068750349805","NA","NA","NA","NA","NA","6176.136167021468","NA","NA","NA","NA","NA","NA","NA","NA","NA","NA","NA","NA","NA","NA","NA","NA","NA","79976.16812505294","NA","NA","69450.71100001223","NA","NA","New experiment","0","0","0","1024"
"undefined","NA","undefined","undefined","undefined","#3d3846","psycho","NA","undefined","undefined","undefined","NA","NA","0","0","0","0","0","0","0","NA","NA","0","NA","0","0","NA","NA","NA","0","NA","NA","NA","NA","NA","0","NA","NA","0","NA","0","0","0","0","NA","0","0","0","NA","Sun Oct 15 14:29:50 2023","NA","The main experiment item","yes","CogPsy_Assignment_With_Instruction.osexp","/Users/andrasjoos/Documents/AI Masters/Period 1/Cognitive Psychology/Research project","no","mono","no","18","no","white","no","Hungarian","yes","768","/Users/andrasjoos/Documents/AI Masters/Period 1/Cognitive Psychology/Research project/results/subject-1.csv","NA","Melodramatic Milgram","4.0.5","NA","Hungarian","right","NA","NA","right","NA","NA","5363.633583998308","5363.633583998308","NA","NA","28522.920624993276","NA","NA","NA","NA","2","NA","1024","2","48000","-16","experiment","1","odd","69452.95683405129","NA","34928.55587502709","92574.15650004987","NA","47096.449792035855","6132.6068750349805","NA","NA","NA","NA","NA","6176.136167021468","NA","NA","NA","NA","NA","NA","NA","NA","NA","79977.04770904966","NA","NA","NA","NA","NA","NA","NA","79976.16812505294","NA","NA","69450.71100001223","NA","NA","New experiment","0","0","0","1024"
"undefined","NA","undefined","undefined","undefined","#3d3846","psycho","NA","undefined","undefined","undefined","NA","NA","0","0","0","0","0","0","0","NA","NA","0","NA","0","0","NA","NA","NA","0","NA","NA","NA","NA","NA","0","NA","NA","0","NA","0","0","0","0","NA","0","0","0","NA","Sun Oct 15 14:29:50 2023","NA","The main experiment item","yes","CogPsy_Assignment_With_Instruction.osexp","/Users/andrasjoos/Documents/AI Masters/Period 1/Cognitive Psychology/Research project","no","mono","no","18","no","white","no","Manufacturing and Production","yes","768","/Users/andrasjoos/Documents/AI Masters/Period 1/Cognitive Psychology/Research project/results/subject-1.csv","NA","Melodramatic Milgram","4.0.5","NA","Manufacturing and Production","right","NA","NA","right","NA","NA","5363.633583998308","5363.633583998308","NA","NA","28522.920624993276","NA","NA","NA","NA","2","NA","1024","2","48000","-16","experiment","1","odd","69452.95683405129","NA","34928.55587502709","92574.15650004987","NA","47096.449792035855","6132.6068750349805","NA","NA","NA","NA","NA","6176.136167021468","NA","NA","NA","NA","NA","NA","NA","NA","NA","79977.04770904966","NA","NA","NA","NA","NA","116149.68504203716","NA","79976.16812505294","NA","NA","69450.71100001223","NA","NA","New experiment","0","0","0","1024"
"100","NA","100","7192","7192","#3d3846","psycho","NA","1","undefined","undefined","1","left","0","0","0","0","0","0","0","0","NA","0","0","0","0","NA","NA","NA","0","NA","NA","NA","NA","NA","0","NA","0","0","0","0","0","0","0","0","0","0","0","NA","Sun Oct 15 14:29:50 2023","20","The main experiment item","yes","CogPsy_Assignment_With_Instruction.osexp","/Users/andrasjoos/Documents/AI Masters/Period 1/Cognitive Psychology/Research project","no","mono","no","18","no","white","no","Manufacturing and Production","yes","768","/Users/andrasjoos/Documents/AI Masters/Period 1/Cognitive Psychology/Research project/results/subject-1.csv","fake","Melodramatic Milgram","4.0.5","BadInk2","left","right","NA","right","right","NA","left","7192.889041965827","5363.633583998308","NA","83523.45808397513","28522.920624993276","NA","7192.889041965827","NA","NA","2","fake_20","1024","2","48000","-16","experiment","1","odd","69452.95683405129","NA","34928.55587502709","92574.15650004987","NA","47096.449792035855","6132.6068750349805","199882.15020904317","NA","NA","200387.4328340171","116162.70487505244","6176.136167021468","NA","NA","NA","NA","NA","NA","NA","NA","NA","79977.04770904966","NA","200387.61000003433","199690.84675004706","199804.55937504303","NA","116149.68504203716","NA","79976.16812505294","207583.77075003227","NA","69450.71100001223","NA","NA","New experiment","1","7192.889041965827","1","1024"
"100","NA","100","5220","5220","#3d3846","psycho","NA","1","undefined","undefined","1","left","0","0","0","0","0","0","0","1","NA","0","1","0","0","NA","NA","NA","0","NA","NA","NA","NA","NA","0","NA","1","0","1","0","0","0","0","1","0","0","0","NA","Sun Oct 15 14:29:50 2023","20","The main experiment item","yes","CogPsy_Assignment_With_Instruction.osexp","/Users/andrasjoos/Documents/AI Masters/Period 1/Cognitive Psychology/Research project","no","mono","no","18","no","white","no","Manufacturing and Production","yes","768","/Users/andrasjoos/Documents/AI Masters/Period 1/Cognitive Psychology/Research project/results/subject-1.csv","fake","Melodramatic Milgram","4.0.5","BrownDenomination","left","right","NA","right","right","NA","left","3247.5709170103073","5363.633583998308","NA","83523.45808397513","28522.920624993276","NA","3247.5709170103073","NA","NA","2","fake_20","1024","2","48000","-16","experiment","1","odd","69452.95683405129","NA","34928.55587502709","92574.15650004987","NA","47096.449792035855","6132.6068750349805","207830.54995903512","NA","NA","208336.02516702376","116162.70487505244","6176.136167021468","NA","NA","NA","NA","NA","NA","NA","NA","NA","79977.04770904966","NA","208336.2216250389","199690.84675004706","207792.52812505","NA","116149.68504203716","NA","79976.16812505294","211586.18520904565","NA","69450.71100001223","NA","NA","New experiment","2","10440.459958976135","2","1024"
"100","NA","100","6426","6426","#3d3846","psycho","NA","1","undefined","undefined","1","left","0","0","0","0","0","0","0","2","NA","0","2","0","0","NA","NA","NA","0","NA","NA","NA","NA","NA","0","NA","2","0","2","0","0","0","0","2","0","0","0","NA","Sun Oct 15 14:29:50 2023","20","The main experiment item","yes","CogPsy_Assignment_With_Instruction.osexp","/Users/andrasjoos/Documents/AI Masters/Period 1/Cognitive Psychology/Research project","no","mono","no","18","no","white","no","Manufacturing and Production","yes","768","/Users/andrasjoos/Documents/AI Masters/Period 1/Cognitive Psychology/Research project/results/subject-1.csv","fake","Melodramatic Milgram","4.0.5","BadInk","left","right","NA","right","right","NA","left","8839.511165977456","5363.633583998308","NA","83523.45808397513","28522.920624993276","NA","8839.511165977456","NA","NA","2","fake_20","1024","2","48000","-16","experiment","1","odd","69452.95683405129","NA","34928.55587502709","92574.15650004987","NA","47096.449792035855","6132.6068750349805","211718.57983403606","NA","NA","212225.5053340341","116162.70487505244","6176.136167021468","NA","NA","NA","NA","NA","NA","NA","NA","NA","79977.04770904966","NA","212225.74145905674","199690.84675004706","211708.04537500953","NA","116149.68504203716","NA","79976.16812505294","221067.11345905205","NA","69450.71100001223","NA","NA","New experiment","3","19279.97112495359","3","1024"
"100","NA","100","6341","6341","#3d3846","psycho","NA","1","undefined","undefined","1","right","0","0","0","0","0","0","0","3","NA","0","3","0","0","NA","NA","NA","0","NA","NA","NA","NA","NA","0","NA","3","0","3","0","0","0","0","3","0","0","0","NA","Sun Oct 15 14:29:50 2023","50","The main experiment item","yes","CogPsy_Assignment_With_Instruction.osexp","/Users/andrasjoos/Documents/AI Masters/Period 1/Cognitive Psychology/Research project","no","mono","no","18","no","white","no","Manufacturing and Production","yes","768","/Users/andrasjoos/Documents/AI Masters/Period 1/Cognitive Psychology/Research project/results/subject-1.csv","real","Melodramatic Milgram","4.0.5","photo_2","right","right","NA","right","right","NA","right","6084.919749991968","5363.633583998308","NA","83523.45808397513","28522.920624993276","NA","6084.919749991968","NA","NA","2","real_50","1024","2","48000","-16","experiment","1","odd","69452.95683405129","NA","34928.55587502709","92574.15650004987","NA","47096.449792035855","6132.6068750349805","221202.72975001717","NA","NA","221709.16308404412","116162.70487505244","6176.136167021468","NA","NA","NA","NA","NA","NA","NA","NA","NA","79977.04770904966","NA","221709.34575004503","199690.84675004706","221169.7692500311","NA","116149.68504203716","NA","79976.16812505294","227798.43400005484","NA","69450.71100001223","NA","NA","New experiment","4","25364.89087494556","4","1024"
"100","NA","100","5875","5875","#3d3846","psycho","NA","1","undefined","undefined","1","left","0","0","0","0","0","0","0","4","NA","0","4","0","0","NA","NA","NA","0","NA","NA","NA","NA","NA","0","NA","4","0","4","0","0","0","0","4","0","0","0","NA","Sun Oct 15 14:29:50 2023","50","The main experiment item","yes","CogPsy_Assignment_With_Instruction.osexp","/Users/andrasjoos/Documents/AI Masters/Period 1/Cognitive Psychology/Research project","no","mono","no","18","no","white","no","Manufacturing and Production","yes","768","/Users/andrasjoos/Documents/AI Masters/Period 1/Cognitive Psychology/Research project/results/subject-1.csv","fake","Melodramatic Milgram","4.0.5","BadInk","left","right","NA","right","right","NA","left","4013.304667023476","5363.633583998308","NA","83523.45808397513","28522.920624993276","NA","4013.304667023476","NA","NA","2","fake_2_50","1024","2","48000","-16","experiment","1","odd","69452.95683405129","NA","34928.55587502709","92574.15650004987","NA","47096.449792035855","6132.6068750349805","227999.80708403746","NA","NA","228504.9835840473","116162.70487505244","6176.136167021468","NA","NA","NA","NA","NA","NA","NA","NA","NA","79977.04770904966","NA","228505.17691700952","199690.84675004706","227964.79970903601","NA","116149.68504203716","NA","79976.16812505294","232519.85754200723","NA","69450.71100001223","NA","NA","New experiment","5","29378.195541969035","5","1024"
"83","NA","83","5282","5282","#3d3846","psycho","NA","0","undefined","undefined","0","right","0","0","0","0","0","0","0","5","NA","0","5","0","0","NA","NA","NA","0","NA","NA","NA","NA","NA","0","NA","5","0","5","0","0","0","0","5","0","0","0","NA","Sun Oct 15 14:29:50 2023","50","The main experiment item","yes","CogPsy_Assignment_With_Instruction.osexp","/Users/andrasjoos/Documents/AI Masters/Period 1/Cognitive Psychology/Research project","no","mono","no","18","no","white","no","Manufacturing and Production","yes","768","/Users/andrasjoos/Documents/AI Masters/Period 1/Cognitive Psychology/Research project/results/subject-1.csv","real","Melodramatic Milgram","4.0.5","genuine","left","right","NA","right","right","NA","left","2317.6799999782816","5363.633583998308","NA","83523.45808397513","28522.920624993276","NA","2317.6799999782816","NA","NA","2","real_50","1024","2","48000","-16","experiment","1","odd","69452.95683405129","NA","34928.55587502709","92574.15650004987","NA","47096.449792035855","6132.6068750349805","232692.81508401036","NA","NA","233200.19475003937","116162.70487505244","6176.136167021468","NA","NA","NA","NA","NA","NA","NA","NA","NA","79977.04770904966","NA","233200.40366705507","199690.84675004706","232648.6965000513","NA","116149.68504203716","NA","79976.16812505294","235519.45158402668","NA","69450.71100001223","NA","NA","New experiment","5","31695.875541947316","6","1024"
"85","NA","85","5220","5220","#3d3846","psycho","NA","1","undefined","undefined","1","left","0","0","0","0","0","0","0","6","NA","0","6","0","0","NA","NA","NA","0","NA","NA","NA","NA","NA","0","NA","6","0","6","0","0","0","0","6","0","0","0","NA","Sun Oct 15 14:29:50 2023","20","The main experiment item","yes","CogPsy_Assignment_With_Instruction.osexp","/Users/andrasjoos/Documents/AI Masters/Period 1/Cognitive Psychology/Research project","no","mono","no","18","no","white","no","Manufacturing and Production","yes","768","/Users/andrasjoos/Documents/AI Masters/Period 1/Cognitive Psychology/Research project/results/subject-1.csv","fake","Melodramatic Milgram","4.0.5","DullHologram","left","right","NA","right","right","NA","left","4847.7133749984205","5363.633583998308","NA","83523.45808397513","28522.920624993276","NA","4847.7133749984205","NA","NA","2","fake_20","1024","2","48000","-16","experiment","1","odd","69452.95683405129","NA","34928.55587502709","92574.15650004987","NA","47096.449792035855","6132.6068750349805","235635.2865420049","NA","NA","236140.05150005687","116162.70487505244","6176.136167021468","NA","NA","NA","NA","NA","NA","NA","NA","NA","79977.04770904966","NA","236140.24641702417","199690.84675004706","235626.48083403474","NA","116149.68504203716","NA","79976.16812505294","240990.16975000268","NA","69450.71100001223","NA","NA","New experiment","6","36543.58891694574","7","1024"
"87","NA","87","5518","5518","#3d3846","psycho","NA","1","undefined","undefined","1","left","0","0","0","0","0","0","0","7","NA","0","7","0","0","NA","NA","NA","0","NA","NA","NA","NA","NA","0","NA","7","0","7","0","0","0","0","7","0","0","0","NA","Sun Oct 15 14:29:50 2023","20","The main experiment item","yes","CogPsy_Assignment_With_Instruction.osexp","/Users/andrasjoos/Documents/AI Masters/Period 1/Cognitive Psychology/Research project","no","mono","no","18","no","white","no","Manufacturing and Production","yes","768","/Users/andrasjoos/Documents/AI Masters/Period 1/Cognitive Psychology/Research project/results/subject-1.csv","fake","Melodramatic Milgram","4.0.5","bottom_left","left","right","NA","right","right","NA","left","7604.7903330181725","5363.633583998308","NA","83523.45808397513","28522.920624993276","NA","7604.7903330181725","NA","NA","2","fake_1_20","1024","2","48000","-16","experiment","1","odd","69452.95683405129","NA","34928.55587502709","92574.15650004987","NA","47096.449792035855","6132.6068750349805","241086.5520000225","NA","NA","241591.46704204613","116162.70487505244","6176.136167021468","NA","NA","NA","NA","NA","NA","NA","NA","NA","79977.04770904966","NA","241591.65016701445","199690.84675004706","241077.88762502605","NA","116149.68504203716","NA","79976.16812505294","249197.83550000284","NA","69450.71100001223","NA","NA","New experiment","7","44148.37924996391","8","1024"
"88","NA","88","5210","5210","#3d3846","psycho","NA","1","undefined","undefined","1","left","0","0","0","0","0","0","0","8","NA","0","8","0","0","NA","NA","NA","0","NA","NA","NA","NA","NA","0","NA","8","0","8","0","0","0","0","8","0","0","0","NA","Sun Oct 15 14:29:50 2023","50","The main experiment item","yes","CogPsy_Assignment_With_Instruction.osexp","/Users/andrasjoos/Documents/AI Masters/Period 1/Cognitive Psychology/Research project","no","mono","no","18","no","white","no","Manufacturing and Production","yes","768","/Users/andrasjoos/Documents/AI Masters/Period 1/Cognitive Psychology/Research project/results/subject-1.csv","fake","Melodramatic Milgram","4.0.5","PurpleDenomination3","left","right","NA","right","right","NA","left","2746.5325000230223","5363.633583998308","NA","83523.45808397513","28522.920624993276","NA","2746.5325000230223","NA","NA","2","fake_2_50","1024","2","48000","-16","experiment","1","odd","69452.95683405129","NA","34928.55587502709","92574.15650004987","NA","47096.449792035855","6132.6068750349805","249404.88154202467","NA","NA","249910.897209018","116162.70487505244","6176.136167021468","NA","NA","NA","NA","NA","NA","NA","NA","NA","79977.04770904966","NA","249911.0928750015","199690.84675004706","249355.36687501008","NA","116149.68504203716","NA","79976.16812505294","252660.6007500086","NA","69450.71100001223","NA","NA","New experiment","8","46894.91174998693","9","1024"
"80","NA","80","5710","5710","#3d3846","psycho","NA","0","undefined","undefined","0","right","0","0","0","0","0","0","0","9","NA","0","9","0","0","NA","NA","NA","0","NA","NA","NA","NA","NA","0","NA","9","0","9","0","0","0","0","9","0","0","0","NA","Sun Oct 15 14:29:50 2023","50","The main experiment item","yes","CogPsy_Assignment_With_Instruction.osexp","/Users/andrasjoos/Documents/AI Masters/Period 1/Cognitive Psychology/Research project","no","mono","no","18","no","white","no","Manufacturing and Production","yes","768","/Users/andrasjoos/Documents/AI Masters/Period 1/Cognitive Psychology/Research project/results/subject-1.csv","real","Melodramatic Milgram","4.0.5","photo","left","right","NA","right","right","NA","left","10210.95774997957","5363.633583998308","NA","83523.45808397513","28522.920624993276","NA","10210.95774997957","NA","NA","2","real_50","1024","2","48000","-16","experiment","1","odd","69452.95683405129","NA","34928.55587502709","92574.15650004987","NA","47096.449792035855","6132.6068750349805","252874.58595901262","NA","NA","253379.76491701556","116162.70487505244","6176.136167021468","NA","NA","NA","NA","NA","NA","NA","NA","NA","79977.04770904966","NA","253379.96725004632","199690.84675004706","252831.0742090107","NA","116149.68504203716","NA","79976.16812505294","263592.65133400913","NA","69450.71100001223","NA","NA","New experiment","8","57105.8694999665","10","1024"
"81","NA","81","5507","5507","#3d3846","psycho","NA","1","undefined","undefined","1","left","0","0","0","0","0","0","0","10","NA","0","10","0","0","NA","NA","NA","0","NA","NA","NA","NA","NA","0","NA","10","0","10","0","0","0","0","10","0","0","0","NA","Sun Oct 15 14:29:50 2023","20","The main experiment item","yes","CogPsy_Assignment_With_Instruction.osexp","/Users/andrasjoos/Documents/AI Masters/Period 1/Cognitive Psychology/Research project","no","mono","no","18","no","white","no","Manufacturing and Production","yes","768","/Users/andrasjoos/Documents/AI Masters/Period 1/Cognitive Psychology/Research project/results/subject-1.csv","fake","Melodramatic Milgram","4.0.5","silver_strip","left","right","NA","right","right","NA","left","3476.6362080117688","5363.633583998308","NA","83523.45808397513","28522.920624993276","NA","3476.6362080117688","NA","NA","2","fake_2_20","1024","2","48000","-16","experiment","1","odd","69452.95683405129","NA","34928.55587502709","92574.15650004987","NA","47096.449792035855","6132.6068750349805","263734.4620420481","NA","NA","264241.78008403396","116162.70487505244","6176.136167021468","NA","NA","NA","NA","NA","NA","NA","NA","NA","79977.04770904966","NA","264241.98270903435","199690.84675004706","263687.3827090021","NA","116149.68504203716","NA","79976.16812505294","267720.84416705184","NA","69450.71100001223","NA","NA","New experiment","9","60582.50570797827","11","1024"
"75","NA","75","5247","5247","#3d3846","psycho","NA","0","undefined","undefined","0","left","0","0","0","0","0","0","0","11","NA","0","11","0","0","NA","NA","NA","0","NA","NA","NA","NA","NA","0","NA","11","0","11","0","0","0","0","11","0","0","0","NA","Sun Oct 15 14:29:50 2023","50","The main experiment item","yes","CogPsy_Assignment_With_Instruction.osexp","/Users/andrasjoos/Documents/AI Masters/Period 1/Cognitive Psychology/Research project","no","mono","no","18","no","white","no","Manufacturing and Production","yes","768","/Users/andrasjoos/Documents/AI Masters/Period 1/Cognitive Psychology/Research project/results/subject-1.csv","fake","Melodramatic Milgram","4.0.5","NoNumOnThread_BlurryWatermark","right","right","NA","right","right","NA","right","2385.3051249752752","5363.633583998308","NA","83523.45808397513","28522.920624993276","NA","2385.3051249752752","NA","NA","2","fake_2_50","1024","2","48000","-16","experiment","1","odd","69452.95683405129","NA","34928.55587502709","92574.15650004987","NA","47096.449792035855","6132.6068750349805","267909.1917090118","NA","NA","268414.14479201194","116162.70487505244","6176.136167021468","NA","NA","NA","NA","NA","NA","NA","NA","NA","79977.04770904966","NA","268414.30879203836","199690.84675004706","267897.7917090524","NA","116149.68504203716","NA","79976.16812505294","270801.1552920216","NA","69450.71100001223","NA","NA","New experiment","9","62967.810832953546","12","1024"
"76","NA","76","5015","5015","#3d3846","psycho","NA","1","undefined","undefined","1","left","0","0","0","0","0","0","0","12","NA","0","12","0","0","NA","NA","NA","0","NA","NA","NA","NA","NA","0","NA","12","0","12","0","0","0","0","12","0","0","0","NA","Sun Oct 15 14:29:50 2023","50","The main experiment item","yes","CogPsy_Assignment_With_Instruction.osexp","/Users/andrasjoos/Documents/AI Masters/Period 1/Cognitive Psychology/Research project","no","mono","no","18","no","white","no","Manufacturing and Production","yes","768","/Users/andrasjoos/Documents/AI Masters/Period 1/Cognitive Psychology/Research project/results/subject-1.csv","fake","Melodramatic Milgram","4.0.5","silver_strip","left","right","NA","right","right","NA","left","2239.309749973472","5363.633583998308","NA","83523.45808397513","28522.920624993276","NA","2239.309749973472","NA","NA","2","fake_2_50","1024","2","48000","-16","experiment","1","odd","69452.95683405129","NA","34928.55587502709","92574.15650004987","NA","47096.449792035855","6132.6068750349805","270891.16250001825","NA","NA","271397.18945900677","116162.70487505244","6176.136167021468","NA","NA","NA","NA","NA","NA","NA","NA","NA","79977.04770904966","NA","271397.3523340537","199690.84675004706","270882.419542002","NA","116149.68504203716","NA","79976.16812505294","273638.1076670368","NA","69450.71100001223","NA","NA","New experiment","10","65207.12058292702","13","1024"
"71","NA","71","4858","4858","#3d3846","psycho","NA","0","undefined","undefined","0","left","0","0","0","0","0","0","0","13","NA","0","13","0","0","NA","NA","NA","0","NA","NA","NA","NA","NA","0","NA","13","0","13","0","0","0","0","13","0","0","0","NA","Sun Oct 15 14:29:50 2023","20","The main experiment item","yes","CogPsy_Assignment_With_Instruction.osexp","/Users/andrasjoos/Documents/AI Masters/Period 1/Cognitive Psychology/Research project","no","mono","no","18","no","white","no","Manufacturing and Production","yes","768","/Users/andrasjoos/Documents/AI Masters/Period 1/Cognitive Psychology/Research project/results/subject-1.csv","fake","Melodramatic Milgram","4.0.5","NoNumOnThread_BlurryWatermark","right","right","NA","right","right","NA","right","2810.935083020013","5363.633583998308","NA","83523.45808397513","28522.920624993276","NA","2810.935083020013","NA","NA","2","fake_20","1024","2","48000","-16","experiment","1","odd","69452.95683405129","NA","34928.55587502709","92574.15650004987","NA","47096.449792035855","6132.6068750349805","273778.2495000283","NA","NA","274283.7341670529","116162.70487505244","6176.136167021468","NA","NA","NA","NA","NA","NA","NA","NA","NA","79977.04770904966","NA","274283.95020903554","199690.84675004706","273769.9904590263","NA","116149.68504203716","NA","79976.16812505294","277096.3229170302","NA","69450.71100001223","NA","NA","New experiment","10","68018.05566594703","14","1024"
"73","NA","73","4650","4650","#3d3846","psycho","NA","1","undefined","undefined","1","right","0","0","0","0","0","0","0","14","NA","0","14","0","0","NA","NA","NA","0","NA","NA","NA","NA","NA","0","NA","14","0","14","0","0","0","0","14","0","0","0","NA","Sun Oct 15 14:29:50 2023","20","The main experiment item","yes","CogPsy_Assignment_With_Instruction.osexp","/Users/andrasjoos/Documents/AI Masters/Period 1/Cognitive Psychology/Research project","no","mono","no","18","no","white","no","Manufacturing and Production","yes","768","/Users/andrasjoos/Documents/AI Masters/Period 1/Cognitive Psychology/Research project/results/subject-1.csv","real","Melodramatic Milgram","4.0.5","photo","right","right","NA","right","right","NA","right","1734.4759999541566","5363.633583998308","NA","83523.45808397513","28522.920624993276","NA","1734.4759999541566","NA","NA","2","real_20","1024","2","48000","-16","experiment","1","odd","69452.95683405129","NA","34928.55587502709","92574.15650004987","NA","47096.449792035855","6132.6068750349805","277236.8499170407","NA","NA","277741.6634170222","116162.70487505244","6176.136167021468","NA","NA","NA","NA","NA","NA","NA","NA","NA","79977.04770904966","NA","277741.83862505015","199690.84675004706","277227.308875008","NA","116149.68504203716","NA","79976.16812505294","279478.6696670344","NA","69450.71100001223","NA","NA","New experiment","11","69752.53166590119","15","1024"
"75","NA","75","4659","4659","#3d3846","psycho","NA","1","undefined","undefined","1","left","0","0","0","0","0","0","0","15","NA","0","15","0","0","NA","NA","NA","0","NA","NA","NA","NA","NA","0","NA","15","0","15","0","0","0","0","15","0","0","0","NA","Sun Oct 15 14:29:50 2023","20","The main experiment item","yes","CogPsy_Assignment_With_Instruction.osexp","/Users/andrasjoos/Documents/AI Masters/Period 1/Cognitive Psychology/Research project","no","mono","no","18","no","white","no","Manufacturing and Production","yes","768","/Users/andrasjoos/Documents/AI Masters/Period 1/Cognitive Psychology/Research project/results/subject-1.csv","fake","Melodramatic Milgram","4.0.5","DullHologram2","left","right","NA","right","right","NA","left","4807.2058749967255","5363.633583998308","NA","83523.45808397513","28522.920624993276","NA","4807.2058749967255","NA","NA","2","fake_20","1024","2","48000","-16","experiment","1","odd","69452.95683405129","NA","34928.55587502709","92574.15650004987","NA","47096.449792035855","6132.6068750349805","279600.52720905514","NA","NA","280104.940625024","116162.70487505244","6176.136167021468","NA","NA","NA","NA","NA","NA","NA","NA","NA","79977.04770904966","NA","280105.1250420278","199690.84675004706","279591.5431670146","NA","116149.68504203716","NA","79976.16812505294","284913.88587502297","NA","69450.71100001223","NA","NA","New experiment","12","74559.73754089791","16","1024"
"76","NA","76","4722","4722","#3d3846","psycho","NA","1","undefined","undefined","1","left","0","0","0","0","0","0","0","16","NA","0","16","0","0","NA","NA","NA","0","NA","NA","NA","NA","NA","0","NA","16","0","16","0","0","0","0","16","0","0","0","NA","Sun Oct 15 14:29:50 2023","20","The main experiment item","yes","CogPsy_Assignment_With_Instruction.osexp","/Users/andrasjoos/Documents/AI Masters/Period 1/Cognitive Psychology/Research project","no","mono","no","18","no","white","no","Manufacturing and Production","yes","768","/Users/andrasjoos/Documents/AI Masters/Period 1/Cognitive Psychology/Research project/results/subject-1.csv","fake","Melodramatic Milgram","4.0.5","bottom_left","left","right","NA","right","right","NA","left","5722.200500022154","5363.633583998308","NA","83523.45808397513","28522.920624993276","NA","5722.200500022154","NA","NA","2","fake_1_20","1024","2","48000","-16","experiment","1","odd","69452.95683405129","NA","34928.55587502709","92574.15650004987","NA","47096.449792035855","6132.6068750349805","285073.7519590184","NA","NA","285579.6655420563","116162.70487505244","6176.136167021468","NA","NA","NA","NA","NA","NA","NA","NA","NA","79977.04770904966","NA","285579.8178340192","199690.84675004706","285034.93141703075","NA","116149.68504203716","NA","79976.16812505294","291304.7404590179","NA","69450.71100001223","NA","NA","New experiment","13","80281.93804092007","17","1024"
"72","NA","72","4574","4574","#3d3846","psycho","NA","0","undefined","undefined","0","right","0","0","0","0","0","0","0","17","NA","0","17","0","0","NA","NA","NA","0","NA","NA","NA","NA","NA","0","NA","17","0","17","0","0","0","0","17","0","0","0","NA","Sun Oct 15 14:29:50 2023","50","The main experiment item","yes","CogPsy_Assignment_With_Instruction.osexp","/Users/andrasjoos/Documents/AI Masters/Period 1/Cognitive Psychology/Research project","no","mono","no","18","no","white","no","Manufacturing and Production","yes","768","/Users/andrasjoos/Documents/AI Masters/Period 1/Cognitive Psychology/Research project/results/subject-1.csv","real","Melodramatic Milgram","4.0.5","photo","left","right","NA","right","right","NA","left","2063.243832963053","5363.633583998308","NA","83523.45808397513","28522.920624993276","NA","2063.243832963053","NA","NA","2","real_50","1024","2","48000","-16","experiment","1","odd","69452.95683405129","NA","34928.55587502709","92574.15650004987","NA","47096.449792035855","6132.6068750349805","291434.36512502376","NA","NA","291939.22195903724","116162.70487505244","6176.136167021468","NA","NA","NA","NA","NA","NA","NA","NA","NA","79977.04770904966","NA","291939.40579204354","199690.84675004706","291424.26258401247","NA","116149.68504203716","NA","79976.16812505294","294004.02512500295","NA","69450.71100001223","NA","NA","New experiment","13","82345.18187388312","18","1024"
"73","NA","73","4489","4489","#3d3846","psycho","NA","1","undefined","undefined","1","left","0","0","0","0","0","0","0","18","NA","0","18","0","0","NA","NA","NA","0","NA","NA","NA","NA","NA","0","NA","18","0","18","0","0","0","0","18","0","0","0","NA","Sun Oct 15 14:29:50 2023","20","The main experiment item","yes","CogPsy_Assignment_With_Instruction.osexp","/Users/andrasjoos/Documents/AI Masters/Period 1/Cognitive Psychology/Research project","no","mono","no","18","no","white","no","Manufacturing and Production","yes","768","/Users/andrasjoos/Documents/AI Masters/Period 1/Cognitive Psychology/Research project/results/subject-1.csv","fake","Melodramatic Milgram","4.0.5","silver_strip","left","right","NA","right","right","NA","left","2948.257583018858","5363.633583998308","NA","83523.45808397513","28522.920624993276","NA","2948.257583018858","NA","NA","2","fake_2_20","1024","2","48000","-16","experiment","1","odd","69452.95683405129","NA","34928.55587502709","92574.15650004987","NA","47096.449792035855","6132.6068750349805","294099.57583399955","NA","NA","294605.5334590492","116162.70487505244","6176.136167021468","NA","NA","NA","NA","NA","NA","NA","NA","NA","79977.04770904966","NA","294605.7737090159","199690.84675004706","294092.01441705227","NA","116149.68504203716","NA","79976.16812505294","297556.1491670087","NA","69450.71100001223","NA","NA","New experiment","14","85293.43945690198","19","1024"
"75","NA","75","4475","4475","#3d3846","psycho","NA","1","undefined","undefined","1","left","0","0","0","0","0","0","0","19","NA","0","19","0","0","NA","NA","NA","0","NA","NA","NA","NA","NA","0","NA","19","0","19","0","0","0","0","19","0","0","0","NA","Sun Oct 15 14:29:50 2023","50","The main experiment item","yes","CogPsy_Assignment_With_Instruction.osexp","/Users/andrasjoos/Documents/AI Masters/Period 1/Cognitive Psychology/Research project","no","mono","no","18","no","white","no","Manufacturing and Production","yes","768","/Users/andrasjoos/Documents/AI Masters/Period 1/Cognitive Psychology/Research project/results/subject-1.csv","fake","Melodramatic Milgram","4.0.5","PurpleDenomination3","left","right","NA","right","right","NA","left","4220.5409170128405","5363.633583998308","NA","83523.45808397513","28522.920624993276","NA","4220.5409170128405","NA","NA","2","fake_2_50","1024","2","48000","-16","experiment","1","odd","69452.95683405129","NA","34928.55587502709","92574.15650004987","NA","47096.449792035855","6132.6068750349805","297755.7384590036","NA","NA","298262.84004200716","116162.70487505244","6176.136167021468","NA","NA","NA","NA","NA","NA","NA","NA","NA","79977.04770904966","NA","298263.0070000305","199690.84675004706","297725.11295904405","NA","116149.68504203716","NA","79976.16812505294","302485.7592920307","NA","69450.71100001223","NA","NA","New experiment","15","89513.98037391482","20","1024"
"71","NA","71","4339","4339","#3d3846","psycho","NA","0","undefined","undefined","0","right","0","0","0","0","0","0","0","20","NA","0","20","0","0","NA","NA","NA","0","NA","NA","NA","NA","NA","0","NA","20","0","20","0","0","0","0","20","0","0","0","NA","Sun Oct 15 14:29:50 2023","50","The main experiment item","yes","CogPsy_Assignment_With_Instruction.osexp","/Users/andrasjoos/Documents/AI Masters/Period 1/Cognitive Psychology/Research project","no","mono","no","18","no","white","no","Manufacturing and Production","yes","768","/Users/andrasjoos/Documents/AI Masters/Period 1/Cognitive Psychology/Research project/results/subject-1.csv","real","Melodramatic Milgram","4.0.5","photo","left","right","NA","right","right","NA","left","1614.9981250055134","5363.633583998308","NA","83523.45808397513","28522.920624993276","NA","1614.9981250055134","NA","NA","2","real_50","1024","2","48000","-16","experiment","1","odd","69452.95683405129","NA","34928.55587502709","92574.15650004987","NA","47096.449792035855","6132.6068750349805","302601.6403340036","NA","NA","303106.5065000439","116162.70487505244","6176.136167021468","NA","NA","NA","NA","NA","NA","NA","NA","NA","79977.04770904966","NA","303106.6667920095","199690.84675004706","302592.62887504883","NA","116149.68504203716","NA","79976.16812505294","304723.30354200676","NA","69450.71100001223","NA","NA","New experiment","15","91128.97849892033","21","1024"
"68","NA","68","4432","4432","#3d3846","psycho","NA","0","undefined","undefined","0","right","0","0","0","0","0","0","0","21","NA","0","21","0","0","NA","NA","NA","0","NA","NA","NA","NA","NA","0","NA","21","0","21","0","0","0","0","21","0","0","0","NA","Sun Oct 15 14:29:50 2023","50","The main experiment item","yes","CogPsy_Assignment_With_Instruction.osexp","/Users/andrasjoos/Documents/AI Masters/Period 1/Cognitive Psychology/Research project","no","mono","no","18","no","white","no","Manufacturing and Production","yes","768","/Users/andrasjoos/Documents/AI Masters/Period 1/Cognitive Psychology/Research project/results/subject-1.csv","real","Melodramatic Milgram","4.0.5","genuine","left","right","NA","right","right","NA","left","6390.398124989588","5363.633583998308","NA","83523.45808397513","28522.920624993276","NA","6390.398124989588","NA","NA","2","real_20","1024","2","48000","-16","experiment","1","odd","69452.95683405129","NA","34928.55587502709","92574.15650004987","NA","47096.449792035855","6132.6068750349805","304812.73754202994","NA","NA","305317.34995904844","116162.70487505244","6176.136167021468","NA","NA","NA","NA","NA","NA","NA","NA","NA","79977.04770904966","NA","305317.5152920303","199690.84675004706","304804.1542500141","NA","116149.68504203716","NA","79976.16812505294","311710.2027920191","NA","69450.71100001223","NA","NA","New experiment","15","97519.37662390992","22","1024"
"69","NA","69","4312","4312","#3d3846","psycho","NA","1","undefined","undefined","1","left","0","0","0","0","0","0","0","22","NA","0","22","0","0","NA","NA","NA","0","NA","NA","NA","NA","NA","0","NA","22","0","22","0","0","0","0","22","0","0","0","NA","Sun Oct 15 14:29:50 2023","50","The main experiment item","yes","CogPsy_Assignment_With_Instruction.osexp","/Users/andrasjoos/Documents/AI Masters/Period 1/Cognitive Psychology/Research project","no","mono","no","18","no","white","no","Manufacturing and Production","yes","768","/Users/andrasjoos/Documents/AI Masters/Period 1/Cognitive Psychology/Research project/results/subject-1.csv","fake","Melodramatic Milgram","4.0.5","bottom_left","left","right","NA","right","right","NA","left","1676.9005000242032","5363.633583998308","NA","83523.45808397513","28522.920624993276","NA","1676.9005000242032","NA","NA","2","fake_1_50","1024","2","48000","-16","experiment","1","odd","69452.95683405129","NA","34928.55587502709","92574.15650004987","NA","47096.449792035855","6132.6068750349805","311903.0322920298","NA","NA","312409.3128750101","116162.70487505244","6176.136167021468","NA","NA","NA","NA","NA","NA","NA","NA","NA","79977.04770904966","NA","312409.53041700413","199690.84675004706","311858.2020419999","NA","116149.68504203716","NA","79976.16812505294","314087.950959045","NA","69450.71100001223","NA","NA","New experiment","16","99196.27712393412","23","1024"
"70","NA","70","4189","4189","#3d3846","psycho","NA","1","undefined","undefined","1","left","0","0","0","0","0","0","0","23","NA","0","23","0","0","NA","NA","NA","0","NA","NA","NA","NA","NA","0","NA","23","0","23","0","0","0","0","23","0","0","0","NA","Sun Oct 15 14:29:50 2023","50","The main experiment item","yes","CogPsy_Assignment_With_Instruction.osexp","/Users/andrasjoos/Documents/AI Masters/Period 1/Cognitive Psychology/Research project","no","mono","no","18","no","white","no","Manufacturing and Production","yes","768","/Users/andrasjoos/Documents/AI Masters/Period 1/Cognitive Psychology/Research project/results/subject-1.csv","fake","Melodramatic Milgram","4.0.5","GreyDenomination","left","right","NA","right","right","NA","left","1340.9382500103675","5363.633583998308","NA","83523.45808397513","28522.920624993276","NA","1340.9382500103675","NA","NA","2","fake_2_50","1024","2","48000","-16","experiment","1","odd","69452.95683405129","NA","34928.55587502709","92574.15650004987","NA","47096.449792035855","6132.6068750349805","314210.03379201284","NA","NA","314714.87645903835","116162.70487505244","6176.136167021468","NA","NA","NA","NA","NA","NA","NA","NA","NA","79977.04770904966","NA","314715.0473340298","199690.84675004706","314202.35395903","NA","116149.68504203716","NA","79976.16812505294","316057.96850001207","NA","69450.71100001223","NA","NA","New experiment","17","100537.21537394449","24","1024"
"72","NA","72","4114","4114","#3d3846","psycho","NA","1","undefined","undefined","1","left","0","0","0","0","0","0","0","24","NA","0","24","0","0","NA","NA","NA","0","NA","NA","NA","NA","NA","0","NA","24","0","24","0","0","0","0","24","0","0","0","NA","Sun Oct 15 14:29:50 2023","50","The main experiment item","yes","CogPsy_Assignment_With_Instruction.osexp","/Users/andrasjoos/Documents/AI Masters/Period 1/Cognitive Psychology/Research project","no","mono","no","18","no","white","no","Manufacturing and Production","yes","768","/Users/andrasjoos/Documents/AI Masters/Period 1/Cognitive Psychology/Research project/results/subject-1.csv","fake","Melodramatic Milgram","4.0.5","silver_strip","left","right","NA","right","right","NA","left","2334.864792006556","5363.633583998308","NA","83523.45808397513","28522.920624993276","NA","2334.864792006556","NA","NA","2","fake_2_50","1024","2","48000","-16","experiment","1","odd","69452.95683405129","NA","34928.55587502709","92574.15650004987","NA","47096.449792035855","6132.6068750349805","316153.5911670071","NA","NA","316658.8862500503","116162.70487505244","6176.136167021468","NA","NA","NA","NA","NA","NA","NA","NA","NA","79977.04770904966","NA","316659.0613750159","199690.84675004706","316144.7180840187","NA","116149.68504203716","NA","79976.16812505294","318995.44212501496","NA","69450.71100001223","NA","NA","New experiment","18","102872.08016595105","25","1024"
"73","NA","73","4022","4022","#3d3846","psycho","NA","1","undefined","undefined","1","left","0","0","0","0","0","0","0","25","NA","0","25","0","0","NA","NA","NA","0","NA","NA","NA","NA","NA","0","NA","25","0","25","0","0","0","0","25","0","0","0","NA","Sun Oct 15 14:29:50 2023","20","The main experiment item","yes","CogPsy_Assignment_With_Instruction.osexp","/Users/andrasjoos/Documents/AI Masters/Period 1/Cognitive Psychology/Research project","no","mono","no","18","no","white","no","Manufacturing and Production","yes","768","/Users/andrasjoos/Documents/AI Masters/Period 1/Cognitive Psychology/Research project/results/subject-1.csv","fake","Melodramatic Milgram","4.0.5","PurpleDenomination","left","right","NA","right","right","NA","left","1706.814083037898","5363.633583998308","NA","83523.45808397513","28522.920624993276","NA","1706.814083037898","NA","NA","2","fake_20","1024","2","48000","-16","experiment","1","odd","69452.95683405129","NA","34928.55587502709","92574.15650004987","NA","47096.449792035855","6132.6068750349805","319115.3871670249","NA","NA","319620.2857090393","116162.70487505244","6176.136167021468","NA","NA","NA","NA","NA","NA","NA","NA","NA","79977.04770904966","NA","319620.456042001","199690.84675004706","319106.4210840268","NA","116149.68504203716","NA","79976.16812505294","321329.0558340377","NA","69450.71100001223","NA","NA","New experiment","19","104578.89424898895","26","1024"
"74","NA","74","3926","3926","#3d3846","psycho","NA","1","undefined","undefined","1","left","0","0","0","0","0","0","0","26","NA","0","26","0","0","NA","NA","NA","0","NA","NA","NA","NA","NA","0","NA","26","0","26","0","0","0","0","26","0","0","0","NA","Sun Oct 15 14:29:50 2023","20","The main experiment item","yes","CogPsy_Assignment_With_Instruction.osexp","/Users/andrasjoos/Documents/AI Masters/Period 1/Cognitive Psychology/Research project","no","mono","no","18","no","white","no","Manufacturing and Production","yes","768","/Users/andrasjoos/Documents/AI Masters/Period 1/Cognitive Psychology/Research project/results/subject-1.csv","fake","Melodramatic Milgram","4.0.5","BrownDenomination","left","right","NA","right","right","NA","left","1436.272207996808","5363.633583998308","NA","83523.45808397513","28522.920624993276","NA","1436.272207996808","NA","NA","2","fake_20","1024","2","48000","-16","experiment","1","odd","69452.95683405129","NA","34928.55587502709","92574.15650004987","NA","47096.449792035855","6132.6068750349805","321452.0406250376","NA","NA","321956.49733400205","116162.70487505244","6176.136167021468","NA","NA","NA","NA","NA","NA","NA","NA","NA","79977.04770904966","NA","321956.6454170272","199690.84675004706","321443.03195900284","NA","116149.68504203716","NA","79976.16812505294","323394.41675000126","NA","69450.71100001223","NA","NA","New experiment","20","106015.16645698575","27","1024"
"75","NA","75","3836","3836","#3d3846","psycho","NA","1","undefined","undefined","1","right","0","0","0","0","0","0","0","27","NA","0","27","0","0","NA","NA","NA","0","NA","NA","NA","NA","NA","0","NA","27","0","27","0","0","0","0","27","0","0","0","NA","Sun Oct 15 14:29:50 2023","50","The main experiment item","yes","CogPsy_Assignment_With_Instruction.osexp","/Users/andrasjoos/Documents/AI Masters/Period 1/Cognitive Psychology/Research project","no","mono","no","18","no","white","no","Manufacturing and Production","yes","768","/Users/andrasjoos/Documents/AI Masters/Period 1/Cognitive Psychology/Research project/results/subject-1.csv","real","Melodramatic Milgram","4.0.5","photo_2","right","right","NA","right","right","NA","right","1402.289459016174","5363.633583998308","NA","83523.45808397513","28522.920624993276","NA","1402.289459016174","NA","NA","2","real_50","1024","2","48000","-16","experiment","1","odd","69452.95683405129","NA","34928.55587502709","92574.15650004987","NA","47096.449792035855","6132.6068750349805","323517.6371250418","NA","NA","324022.22791704116","116162.70487505244","6176.136167021468","NA","NA","NA","NA","NA","NA","NA","NA","NA","79977.04770904966","NA","324022.4121250212","199690.84675004706","323508.0987920519","NA","116149.68504203716","NA","79976.16812505294","325427.0262920181","NA","69450.71100001223","NA","NA","New experiment","21","107417.45591600193","28","1024"
"75","NA","75","3843","3843","#3d3846","psycho","NA","1","undefined","undefined","1","left","0","0","0","0","0","0","0","28","NA","0","28","0","0","NA","NA","NA","0","NA","NA","NA","NA","NA","0","NA","28","0","28","0","0","0","0","28","0","0","0","NA","Sun Oct 15 14:29:50 2023","50","The main experiment item","yes","CogPsy_Assignment_With_Instruction.osexp","/Users/andrasjoos/Documents/AI Masters/Period 1/Cognitive Psychology/Research project","no","mono","no","18","no","white","no","Manufacturing and Production","yes","768","/Users/andrasjoos/Documents/AI Masters/Period 1/Cognitive Psychology/Research project/results/subject-1.csv","fake","Melodramatic Milgram","4.0.5","PurpleDenomination","left","right","NA","right","right","NA","left","4058.370125014335","5363.633583998308","NA","83523.45808397513","28522.920624993276","NA","4058.370125014335","NA","NA","2","fake_2_50","1024","2","48000","-16","experiment","1","odd","69452.95683405129","NA","34928.55587502709","92574.15650004987","NA","47096.449792035855","6132.6068750349805","325534.9311250029","NA","NA","326039.1450840398","116162.70487505244","6176.136167021468","NA","NA","NA","NA","NA","NA","NA","NA","NA","79977.04770904966","NA","326039.3023340148","199690.84675004706","325527.120917046","NA","116149.68504203716","NA","79976.16812505294","330099.0210000309","NA","69450.71100001223","NA","NA","New experiment","22","111475.82604101626","29","1024"
"76","NA","76","3747","3747","#3d3846","psycho","NA","1","undefined","undefined","1","left","0","0","0","0","0","0","0","29","NA","0","29","0","0","NA","NA","NA","0","NA","NA","NA","NA","NA","0","NA","29","0","29","0","0","0","0","29","0","0","0","NA","Sun Oct 15 14:29:50 2023","20","The main experiment item","yes","CogPsy_Assignment_With_Instruction.osexp","/Users/andrasjoos/Documents/AI Masters/Period 1/Cognitive Psychology/Research project","no","mono","no","18","no","white","no","Manufacturing and Production","yes","768","/Users/andrasjoos/Documents/AI Masters/Period 1/Cognitive Psychology/Research project/results/subject-1.csv","fake","Melodramatic Milgram","4.0.5","BadInk2","left","right","NA","right","right","NA","left","952.8489999938756","5363.633583998308","NA","83523.45808397513","28522.920624993276","NA","952.8489999938756","NA","NA","2","fake_20","1024","2","48000","-16","experiment","1","odd","69452.95683405129","NA","34928.55587502709","92574.15650004987","NA","47096.449792035855","6132.6068750349805","330232.6290840283","NA","NA","330737.6526250155","116162.70487505244","6176.136167021468","NA","NA","NA","NA","NA","NA","NA","NA","NA","79977.04770904966","NA","330737.8766250331","199690.84675004706","330223.490125034","NA","116149.68504203716","NA","79976.16812505294","331692.2862090287","NA","69450.71100001223","NA","NA","New experiment","23","112428.67504101014","30","1024"
"77","NA","77","3803","3803","#3d3846","psycho","NA","1","undefined","undefined","1","right","0","0","0","0","0","0","0","30","NA","0","30","0","0","NA","NA","NA","0","NA","NA","NA","NA","NA","0","NA","30","0","30","0","0","0","0","30","0","0","0","NA","Sun Oct 15 14:29:50 2023","20","The main experiment item","yes","CogPsy_Assignment_With_Instruction.osexp","/Users/andrasjoos/Documents/AI Masters/Period 1/Cognitive Psychology/Research project","no","mono","no","18","no","white","no","Manufacturing and Production","yes","768","/Users/andrasjoos/Documents/AI Masters/Period 1/Cognitive Psychology/Research project/results/subject-1.csv","real","Melodramatic Milgram","4.0.5","photo","right","right","NA","right","right","NA","right","5482.998375024181","5363.633583998308","NA","83523.45808397513","28522.920624993276","NA","5482.998375024181","NA","NA","2","real_20","1024","2","48000","-16","experiment","1","odd","69452.95683405129","NA","34928.55587502709","92574.15650004987","NA","47096.449792035855","6132.6068750349805","331832.1148750256","NA","NA","332336.57045901055","116162.70487505244","6176.136167021468","NA","NA","NA","NA","NA","NA","NA","NA","NA","79977.04770904966","NA","332336.7524589994","199690.84675004706","331827.03195902286","NA","116149.68504203716","NA","79976.16812505294","337821.46708405344","NA","69450.71100001223","NA","NA","New experiment","24","117911.67341603432","31","1024"
"78","NA","78","3731","3731","#3d3846","psycho","NA","1","undefined","undefined","1","left","0","0","0","0","0","0","0","31","NA","0","31","0","0","NA","NA","NA","0","NA","NA","NA","NA","NA","0","NA","31","0","31","0","0","0","0","31","0","0","0","NA","Sun Oct 15 14:29:50 2023","20","The main experiment item","yes","CogPsy_Assignment_With_Instruction.osexp","/Users/andrasjoos/Documents/AI Masters/Period 1/Cognitive Psychology/Research project","no","mono","no","18","no","white","no","Manufacturing and Production","yes","768","/Users/andrasjoos/Documents/AI Masters/Period 1/Cognitive Psychology/Research project/results/subject-1.csv","fake","Melodramatic Milgram","4.0.5","DullHologram2","left","right","NA","right","right","NA","left","1487.7926660119556","5363.633583998308","NA","83523.45808397513","28522.920624993276","NA","1487.7926660119556","NA","NA","2","fake_20","1024","2","48000","-16","experiment","1","odd","69452.95683405129","NA","34928.55587502709","92574.15650004987","NA","47096.449792035855","6132.6068750349805","337968.6647920171","NA","NA","338474.1237500566","116162.70487505244","6176.136167021468","NA","NA","NA","NA","NA","NA","NA","NA","NA","79977.04770904966","NA","338474.2823340348","199690.84675004706","337943.0964590283","NA","116149.68504203716","NA","79976.16812505294","339963.55233405484","NA","69450.71100001223","NA","NA","New experiment","25","119399.46608204627","32","1024"
"78","NA","78","3797","3797","#3d3846","psycho","NA","1","undefined","undefined","1","left","0","0","0","0","0","0","0","32","NA","0","32","0","0","NA","NA","NA","0","NA","NA","NA","NA","NA","0","NA","32","0","32","0","0","0","0","32","0","0","0","NA","Sun Oct 15 14:29:50 2023","50","The main experiment item","yes","CogPsy_Assignment_With_Instruction.osexp","/Users/andrasjoos/Documents/AI Masters/Period 1/Cognitive Psychology/Research project","no","mono","no","18","no","white","no","Manufacturing and Production","yes","768","/Users/andrasjoos/Documents/AI Masters/Period 1/Cognitive Psychology/Research project/results/subject-1.csv","fake","Melodramatic Milgram","4.0.5","PurpleDenomination2","left","right","NA","right","right","NA","left","5926.843541965354","5363.633583998308","NA","83523.45808397513","28522.920624993276","NA","5926.843541965354","NA","NA","2","fake_2_50","1024","2","48000","-16","experiment","1","odd","69452.95683405129","NA","34928.55587502709","92574.15650004987","NA","47096.449792035855","6132.6068750349805","340139.9555420503","NA","NA","340644.38691700343","116162.70487505244","6176.136167021468","NA","NA","NA","NA","NA","NA","NA","NA","NA","79977.04770904966","NA","340644.5566250477","199690.84675004706","340129.5303340303","NA","116149.68504203716","NA","79976.16812505294","346573.12450004974","NA","69450.71100001223","NA","NA","New experiment","26","125326.30962401163","33","1024"
"76","NA","76","3722","3722","#3d3846","psycho","NA","0","undefined","undefined","0","right","0","0","0","0","0","0","0","33","NA","0","33","0","0","NA","NA","NA","0","NA","NA","NA","NA","NA","0","NA","33","0","33","0","0","0","0","33","0","0","0","NA","Sun Oct 15 14:29:50 2023","50","The main experiment item","yes","CogPsy_Assignment_With_Instruction.osexp","/Users/andrasjoos/Documents/AI Masters/Period 1/Cognitive Psychology/Research project","no","mono","no","18","no","white","no","Manufacturing and Production","yes","768","/Users/andrasjoos/Documents/AI Masters/Period 1/Cognitive Psychology/Research project/results/subject-1.csv","real","Melodramatic Milgram","4.0.5","genuine","left","right","NA","right","right","NA","left","1251.9815000123344","5363.633583998308","NA","83523.45808397513","28522.920624993276","NA","1251.9815000123344","NA","NA","2","real_20","1024","2","48000","-16","experiment","1","odd","69452.95683405129","NA","34928.55587502709","92574.15650004987","NA","47096.449792035855","6132.6068750349805","346697.36829202157","NA","NA","347202.63004204025","116162.70487505244","6176.136167021468","NA","NA","NA","NA","NA","NA","NA","NA","NA","79977.04770904966","NA","347202.83195900265","199690.84675004706","346654.90937500726","NA","116149.68504203716","NA","79976.16812505294","348457.26083405316","NA","69450.71100001223","NA","NA","New experiment","26","126578.29112402396","34","1024"
"77","NA","77","3733","3733","#3d3846","psycho","NA","1","undefined","undefined","1","right","0","0","0","0","0","0","0","34","NA","0","34","0","0","NA","NA","NA","0","NA","NA","NA","NA","NA","0","NA","34","0","34","0","0","0","0","34","0","0","0","NA","Sun Oct 15 14:29:50 2023","50","The main experiment item","yes","CogPsy_Assignment_With_Instruction.osexp","/Users/andrasjoos/Documents/AI Masters/Period 1/Cognitive Psychology/Research project","no","mono","no","18","no","white","no","Manufacturing and Production","yes","768","/Users/andrasjoos/Documents/AI Masters/Period 1/Cognitive Psychology/Research project/results/subject-1.csv","real","Melodramatic Milgram","4.0.5","genuine","right","right","NA","right","right","NA","right","4093.3239580481313","5363.633583998308","NA","83523.45808397513","28522.920624993276","NA","4093.3239580481313","NA","NA","2","real_50","1024","2","48000","-16","experiment","1","odd","69452.95683405129","NA","34928.55587502709","92574.15650004987","NA","47096.449792035855","6132.6068750349805","348579.184250033","NA","NA","349084.3150000437","116162.70487505244","6176.136167021468","NA","NA","NA","NA","NA","NA","NA","NA","NA","79977.04770904966","NA","349084.5127089997","199690.84675004706","348569.9428340304","NA","116149.68504203716","NA","79976.16812505294","353179.29991701385","NA","69450.71100001223","NA","NA","New experiment","27","130671.6150820721","35","1024"
"77","NA","77","3707","3707","#3d3846","psycho","NA","1","undefined","undefined","1","left","0","0","0","0","0","0","0","35","NA","0","35","0","0","NA","NA","NA","0","NA","NA","NA","NA","NA","0","NA","35","0","35","0","0","0","0","35","0","0","0","NA","Sun Oct 15 14:29:50 2023","20","The main experiment item","yes","CogPsy_Assignment_With_Instruction.osexp","/Users/andrasjoos/Documents/AI Masters/Period 1/Cognitive Psychology/Research project","no","mono","no","18","no","white","no","Manufacturing and Production","yes","768","/Users/andrasjoos/Documents/AI Masters/Period 1/Cognitive Psychology/Research project/results/subject-1.csv","fake","Melodramatic Milgram","4.0.5","DullHologram","left","right","NA","right","right","NA","left","2812.109792022966","5363.633583998308","NA","83523.45808397513","28522.920624993276","NA","2812.109792022966","NA","NA","2","fake_20","1024","2","48000","-16","experiment","1","odd","69452.95683405129","NA","34928.55587502709","92574.15650004987","NA","47096.449792035855","6132.6068750349805","353301.0687500355","NA","NA","353805.9320420143","116162.70487505244","6176.136167021468","NA","NA","NA","NA","NA","NA","NA","NA","NA","79977.04770904966","NA","353806.1240420211","199690.84675004706","353290.9705840284","NA","116149.68504203716","NA","79976.16812505294","356619.78791700676","NA","69450.71100001223","NA","NA","New experiment","28","133483.72487409506","36","1024"
"78","NA","78","3625","3625","#3d3846","psycho","NA","1","undefined","undefined","1","left","0","0","0","0","0","0","0","36","NA","0","36","0","0","NA","NA","NA","0","NA","NA","NA","NA","NA","0","NA","36","0","36","0","0","0","0","36","0","0","0","NA","Sun Oct 15 14:29:50 2023","20","The main experiment item","yes","CogPsy_Assignment_With_Instruction.osexp","/Users/andrasjoos/Documents/AI Masters/Period 1/Cognitive Psychology/Research project","no","mono","no","18","no","white","no","Manufacturing and Production","yes","768","/Users/andrasjoos/Documents/AI Masters/Period 1/Cognitive Psychology/Research project/results/subject-1.csv","fake","Melodramatic Milgram","4.0.5","BadInk","left","right","NA","right","right","NA","left","643.283000041265","5363.633583998308","NA","83523.45808397513","28522.920624993276","NA","643.283000041265","NA","NA","2","fake_20","1024","2","48000","-16","experiment","1","odd","69452.95683405129","NA","34928.55587502709","92574.15650004987","NA","47096.449792035855","6132.6068750349805","356748.00004204735","NA","NA","357252.8863750049","116162.70487505244","6176.136167021468","NA","NA","NA","NA","NA","NA","NA","NA","NA","79977.04770904966","NA","357253.0520000146","199690.84675004706","356738.59429202275","NA","116149.68504203716","NA","79976.16812505294","357898.0585000245","NA","69450.71100001223","NA","NA","New experiment","29","134127.00787413632","37","1024"
"78","NA","78","3564","3564","#3d3846","psycho","NA","1","undefined","undefined","1","left","0","0","0","0","0","0","0","37","NA","0","37","0","0","NA","NA","NA","0","NA","NA","NA","NA","NA","0","NA","37","0","37","0","0","0","0","37","0","0","0","NA","Sun Oct 15 14:29:50 2023","20","The main experiment item","yes","CogPsy_Assignment_With_Instruction.osexp","/Users/andrasjoos/Documents/AI Masters/Period 1/Cognitive Psychology/Research project","no","mono","no","18","no","white","no","Manufacturing and Production","yes","768","/Users/andrasjoos/Documents/AI Masters/Period 1/Cognitive Psychology/Research project/results/subject-1.csv","fake","Melodramatic Milgram","4.0.5","PurpleDenomination","left","right","NA","right","right","NA","left","1329.3862910359167","5363.633583998308","NA","83523.45808397513","28522.920624993276","NA","1329.3862910359167","NA","NA","2","fake_20","1024","2","48000","-16","experiment","1","odd","69452.95683405129","NA","34928.55587502709","92574.15650004987","NA","47096.449792035855","6132.6068750349805","358015.66525001545","NA","NA","358520.50237503136","116162.70487505244","6176.136167021468","NA","NA","NA","NA","NA","NA","NA","NA","NA","79977.04770904966","NA","358520.66845900845","199690.84675004706","358010.5501670041","NA","116149.68504203716","NA","79976.16812505294","359851.48883401416","NA","69450.71100001223","NA","NA","New experiment","30","135456.39416517224","38","1024"
"79","NA","79","3489","3489","#3d3846","psycho","NA","1","undefined","undefined","1","left","0","0","0","0","0","0","0","38","NA","0","38","0","0","NA","NA","NA","0","NA","NA","NA","NA","NA","0","NA","38","0","38","0","0","0","0","38","0","0","0","NA","Sun Oct 15 14:29:50 2023","50","The main experiment item","yes","CogPsy_Assignment_With_Instruction.osexp","/Users/andrasjoos/Documents/AI Masters/Period 1/Cognitive Psychology/Research project","no","mono","no","18","no","white","no","Manufacturing and Production","yes","768","/Users/andrasjoos/Documents/AI Masters/Period 1/Cognitive Psychology/Research project/results/subject-1.csv","fake","Melodramatic Milgram","4.0.5","PurpleDenomination2","left","right","NA","right","right","NA","left","643.485042033717","5363.633583998308","NA","83523.45808397513","28522.920624993276","NA","643.485042033717","NA","NA","2","fake_2_50","1024","2","48000","-16","experiment","1","odd","69452.95683405129","NA","34928.55587502709","92574.15650004987","NA","47096.449792035855","6132.6068750349805","359981.37141700136","NA","NA","360486.79858405376","116162.70487505244","6176.136167021468","NA","NA","NA","NA","NA","NA","NA","NA","NA","79977.04770904966","NA","360487.0477920049","199690.84675004706","359971.8620420317","NA","116149.68504203716","NA","79976.16812505294","361132.1014999994","NA","69450.71100001223","NA","NA","New experiment","31","136099.87920720596","39","1024"
"77","NA","77","3691","3691","#3d3846","psycho","NA","0","undefined","undefined","0","right","0","0","0","0","0","0","0","39","NA","0","39","0","0","NA","NA","NA","0","NA","NA","NA","NA","NA","0","NA","39","0","39","0","0","0","0","39","0","0","0","NA","Sun Oct 15 14:29:50 2023","50","The main experiment item","yes","CogPsy_Assignment_With_Instruction.osexp","/Users/andrasjoos/Documents/AI Masters/Period 1/Cognitive Psychology/Research project","no","mono","no","18","no","white","no","Manufacturing and Production","yes","768","/Users/andrasjoos/Documents/AI Masters/Period 1/Cognitive Psychology/Research project/results/subject-1.csv","real","Melodramatic Milgram","4.0.5","photo","left","right","NA","right","right","NA","left","11543.918250012212","5363.633583998308","NA","83523.45808397513","28522.920624993276","NA","11543.918250012212","NA","NA","2","real_50","1024","2","48000","-16","experiment","1","odd","69452.95683405129","NA","34928.55587502709","92574.15650004987","NA","47096.449792035855","6132.6068750349805","361252.44275003206","NA","NA","361757.65950005734","116162.70487505244","6176.136167021468","NA","NA","NA","NA","NA","NA","NA","NA","NA","79977.04770904966","NA","361757.826792018","199690.84675004706","361247.32383404626","NA","116149.68504203716","NA","79976.16812505294","373306.1743750004","NA","69450.71100001223","NA","NA","New experiment","31","147643.79745721817","40","1024"
"78","NA","78","3751","3751","#3d3846","psycho","NA","1","undefined","undefined","1","left","0","0","0","0","0","0","0","40","NA","0","40","0","0","NA","NA","NA","0","NA","NA","NA","NA","NA","0","NA","40","0","40","0","0","0","0","40","0","0","0","NA","Sun Oct 15 14:29:50 2023","50","The main experiment item","yes","CogPsy_Assignment_With_Instruction.osexp","/Users/andrasjoos/Documents/AI Masters/Period 1/Cognitive Psychology/Research project","no","mono","no","18","no","white","no","Manufacturing and Production","yes","768","/Users/andrasjoos/Documents/AI Masters/Period 1/Cognitive Psychology/Research project/results/subject-1.csv","fake","Melodramatic Milgram","4.0.5","BadInk","left","right","NA","right","right","NA","left","6159.565916983411","5363.633583998308","NA","83523.45808397513","28522.920624993276","NA","6159.565916983411","NA","NA","2","fake_2_50","1024","2","48000","-16","experiment","1","odd","69452.95683405129","NA","34928.55587502709","92574.15650004987","NA","47096.449792035855","6132.6068750349805","373484.7855840344","NA","NA","373990.61295902357","116162.70487505244","6176.136167021468","NA","NA","NA","NA","NA","NA","NA","NA","NA","79977.04770904966","NA","373990.7906250446","199690.84675004706","373438.8695420348","NA","116149.68504203716","NA","79976.16812505294","380151.9413340138","NA","69450.71100001223","NA","NA","New experiment","32","153803.36337420158","41","1024"
"78","NA","78","3712","3712","#3d3846","psycho","NA","1","undefined","undefined","1","right","0","0","0","0","0","0","0","41","NA","0","41","0","0","NA","NA","NA","0","NA","NA","NA","NA","NA","0","NA","41","0","41","0","0","0","0","41","0","0","0","NA","Sun Oct 15 14:29:50 2023","50","The main experiment item","yes","CogPsy_Assignment_With_Instruction.osexp","/Users/andrasjoos/Documents/AI Masters/Period 1/Cognitive Psychology/Research project","no","mono","no","18","no","white","no","Manufacturing and Production","yes","768","/Users/andrasjoos/Documents/AI Masters/Period 1/Cognitive Psychology/Research project/results/subject-1.csv","real","Melodramatic Milgram","4.0.5","photo_2","right","right","NA","right","right","NA","right","2105.666499992367","5363.633583998308","NA","83523.45808397513","28522.920624993276","NA","2105.666499992367","NA","NA","2","real_50","1024","2","48000","-16","experiment","1","odd","69452.95683405129","NA","34928.55587502709","92574.15650004987","NA","47096.449792035855","6132.6068750349805","380334.73079203395","NA","NA","380841.5893340134","116162.70487505244","6176.136167021468","NA","NA","NA","NA","NA","NA","NA","NA","NA","79977.04770904966","NA","380841.79766703164","199690.84675004706","380293.09554200154","NA","116149.68504203716","NA","79976.16812505294","382949.7837090166","NA","69450.71100001223","NA","NA","New experiment","33","155909.02987419395","42","1024"
"79","NA","79","3649","3649","#3d3846","psycho","NA","1","undefined","undefined","1","left","0","0","0","0","0","0","0","42","NA","0","42","0","0","NA","NA","NA","0","NA","NA","NA","NA","NA","0","NA","42","0","42","0","0","0","0","42","0","0","0","NA","Sun Oct 15 14:29:50 2023","50","The main experiment item","yes","CogPsy_Assignment_With_Instruction.osexp","/Users/andrasjoos/Documents/AI Masters/Period 1/Cognitive Psychology/Research project","no","mono","no","18","no","white","no","Manufacturing and Production","yes","768","/Users/andrasjoos/Documents/AI Masters/Period 1/Cognitive Psychology/Research project/results/subject-1.csv","fake","Melodramatic Milgram","4.0.5","bottom_left","left","right","NA","right","right","NA","left","1009.1393750044517","5363.633583998308","NA","83523.45808397513","28522.920624993276","NA","1009.1393750044517","NA","NA","2","fake_1_50","1024","2","48000","-16","experiment","1","odd","69452.95683405129","NA","34928.55587502709","92574.15650004987","NA","47096.449792035855","6132.6068750349805","383048.19458402926","NA","NA","383552.90279205656","116162.70487505244","6176.136167021468","NA","NA","NA","NA","NA","NA","NA","NA","NA","79977.04770904966","NA","383553.0617920449","199690.84675004706","383037.535667012","NA","116149.68504203716","NA","79976.16812505294","384563.5943750385","NA","69450.71100001223","NA","NA","New experiment","34","156918.1692491984","43","1024"
"77","NA","77","3630","3630","#3d3846","psycho","NA","0","undefined","undefined","0","right","0","0","0","0","0","0","0","43","NA","0","43","0","0","NA","NA","NA","0","NA","NA","NA","NA","NA","0","NA","43","0","43","0","0","0","0","43","0","0","0","NA","Sun Oct 15 14:29:50 2023","20","The main experiment item","yes","CogPsy_Assignment_With_Instruction.osexp","/Users/andrasjoos/Documents/AI Masters/Period 1/Cognitive Psychology/Research project","no","mono","no","18","no","white","no","Manufacturing and Production","yes","768","/Users/andrasjoos/Documents/AI Masters/Period 1/Cognitive Psychology/Research project/results/subject-1.csv","real","Melodramatic Milgram","4.0.5","genuine","left","right","NA","right","right","NA","left","2808.0722499871626","5363.633583998308","NA","83523.45808397513","28522.920624993276","NA","2808.0722499871626","NA","NA","2","real_20","1024","2","48000","-16","experiment","1","odd","69452.95683405129","NA","34928.55587502709","92574.15650004987","NA","47096.449792035855","6132.6068750349805","384649.96891701594","NA","NA","385156.4252920216","116162.70487505244","6176.136167021468","NA","NA","NA","NA","NA","NA","NA","NA","NA","79977.04770904966","NA","385156.6556250327","199690.84675004706","384645.15675004805","NA","116149.68504203716","NA","79976.16812505294","387966.20270900894","NA","69450.71100001223","NA","NA","New experiment","34","159726.24149918556","44","1024"
"75","NA","75","3570","3570","#3d3846","psycho","NA","0","undefined","undefined","0","left","0","0","0","0","0","0","0","44","NA","0","44","0","0","NA","NA","NA","0","NA","NA","NA","NA","NA","0","NA","44","0","44","0","0","0","0","44","0","0","0","NA","Sun Oct 15 14:29:50 2023","20","The main experiment item","yes","CogPsy_Assignment_With_Instruction.osexp","/Users/andrasjoos/Documents/AI Masters/Period 1/Cognitive Psychology/Research project","no","mono","no","18","no","white","no","Manufacturing and Production","yes","768","/Users/andrasjoos/Documents/AI Masters/Period 1/Cognitive Psychology/Research project/results/subject-1.csv","fake","Melodramatic Milgram","4.0.5","NoNumOnThread_BlurryWatermark","right","right","NA","right","right","NA","right","953.294291975908","5363.633583998308","NA","83523.45808397513","28522.920624993276","NA","953.294291975908","NA","NA","2","fake_20","1024","2","48000","-16","experiment","1","odd","69452.95683405129","NA","34928.55587502709","92574.15650004987","NA","47096.449792035855","6132.6068750349805","388109.54587504966","NA","NA","388614.31083403295","116162.70487505244","6176.136167021468","NA","NA","NA","NA","NA","NA","NA","NA","NA","79977.04770904966","NA","388614.47654204676","199690.84675004706","388100.9351670509","NA","116149.68504203716","NA","79976.16812505294","389569.28550003795","NA","69450.71100001223","NA","NA","New experiment","34","160679.53579116147","45","1024"
"76","NA","76","3510","3510","#3d3846","psycho","NA","1","undefined","undefined","1","right","0","0","0","0","0","0","0","45","NA","0","45","0","0","NA","NA","NA","0","NA","NA","NA","NA","NA","0","NA","45","0","45","0","0","0","0","45","0","0","0","NA","Sun Oct 15 14:29:50 2023","50","The main experiment item","yes","CogPsy_Assignment_With_Instruction.osexp","/Users/andrasjoos/Documents/AI Masters/Period 1/Cognitive Psychology/Research project","no","mono","no","18","no","white","no","Manufacturing and Production","yes","768","/Users/andrasjoos/Documents/AI Masters/Period 1/Cognitive Psychology/Research project/results/subject-1.csv","real","Melodramatic Milgram","4.0.5","photo_2","right","right","NA","right","right","NA","right","784.1587499715388","5363.633583998308","NA","83523.45808397513","28522.920624993276","NA","784.1587499715388","NA","NA","2","real_50","1024","2","48000","-16","experiment","1","odd","69452.95683405129","NA","34928.55587502709","92574.15650004987","NA","47096.449792035855","6132.6068750349805","389678.664459032","NA","NA","390183.0548750004","116162.70487505244","6176.136167021468","NA","NA","NA","NA","NA","NA","NA","NA","NA","79977.04770904966","NA","390183.2392500364","199690.84675004706","389673.66733402014","NA","116149.68504203716","NA","79976.16812505294","390969.1161670489","NA","69450.71100001223","NA","NA","New experiment","35","161463.694541133","46","1024"
"74","NA","74","3468","3468","#3d3846","psycho","NA","0","undefined","undefined","0","right","0","0","0","0","0","0","0","46","NA","0","46","0","0","NA","NA","NA","0","NA","NA","NA","NA","NA","0","NA","46","0","46","0","0","0","0","46","0","0","0","NA","Sun Oct 15 14:29:50 2023","20","The main experiment item","yes","CogPsy_Assignment_With_Instruction.osexp","/Users/andrasjoos/Documents/AI Masters/Period 1/Cognitive Psychology/Research project","no","mono","no","18","no","white","no","Manufacturing and Production","yes","768","/Users/andrasjoos/Documents/AI Masters/Period 1/Cognitive Psychology/Research project/results/subject-1.csv","real","Melodramatic Milgram","4.0.5","genuine","left","right","NA","right","right","NA","left","1575.584624952171","5363.633583998308","NA","83523.45808397513","28522.920624993276","NA","1575.584624952171","NA","NA","2","real_20","1024","2","48000","-16","experiment","1","odd","69452.95683405129","NA","34928.55587502709","92574.15650004987","NA","47096.449792035855","6132.6068750349805","391059.2901670025","NA","NA","391563.9086670126","116162.70487505244","6176.136167021468","NA","NA","NA","NA","NA","NA","NA","NA","NA","79977.04770904966","NA","391564.0632920549","199690.84675004706","391054.24841702916","NA","116149.68504203716","NA","79976.16812505294","393141.209042049","NA","69450.71100001223","NA","NA","New experiment","35","163039.27916608518","47","1024"
"72","NA","72","3415","3415","#3d3846","psycho","NA","0","undefined","undefined","0","right","0","0","0","0","0","0","0","47","NA","0","47","0","0","NA","NA","NA","0","NA","NA","NA","NA","NA","0","NA","47","0","47","0","0","0","0","47","0","0","0","NA","Sun Oct 15 14:29:50 2023","20","The main experiment item","yes","CogPsy_Assignment_With_Instruction.osexp","/Users/andrasjoos/Documents/AI Masters/Period 1/Cognitive Psychology/Research project","no","mono","no","18","no","white","no","Manufacturing and Production","yes","768","/Users/andrasjoos/Documents/AI Masters/Period 1/Cognitive Psychology/Research project/results/subject-1.csv","real","Melodramatic Milgram","4.0.5","genuine","left","right","NA","right","right","NA","left","927.6981249568053","5363.633583998308","NA","83523.45808397513","28522.920624993276","NA","927.6981249568053","NA","NA","2","real_20","1024","2","48000","-16","experiment","1","odd","69452.95683405129","NA","34928.55587502709","92574.15650004987","NA","47096.449792035855","6132.6068750349805","393235.4516670457","NA","NA","393741.36412504595","116162.70487505244","6176.136167021468","NA","NA","NA","NA","NA","NA","NA","NA","NA","79977.04770904966","NA","393741.5494590532","199690.84675004706","393224.8727500555","NA","116149.68504203716","NA","79976.16812505294","394671.839125047","NA","69450.71100001223","NA","NA","New experiment","35","163966.97729104199","48","1024"
"73","NA","73","3373","3373","#3d3846","psycho","NA","1","undefined","undefined","1","right","0","0","0","0","0","0","0","48","NA","0","48","0","0","NA","NA","NA","0","NA","NA","NA","NA","NA","0","NA","48","0","48","0","0","0","0","48","0","0","0","NA","Sun Oct 15 14:29:50 2023","20","The main experiment item","yes","CogPsy_Assignment_With_Instruction.osexp","/Users/andrasjoos/Documents/AI Masters/Period 1/Cognitive Psychology/Research project","no","mono","no","18","no","white","no","Manufacturing and Production","yes","768","/Users/andrasjoos/Documents/AI Masters/Period 1/Cognitive Psychology/Research project/results/subject-1.csv","real","Melodramatic Milgram","4.0.5","photo","right","right","NA","right","right","NA","right","1358.9076250209473","5363.633583998308","NA","83523.45808397513","28522.920624993276","NA","1358.9076250209473","NA","NA","2","real_20","1024","2","48000","-16","experiment","1","odd","69452.95683405129","NA","34928.55587502709","92574.15650004987","NA","47096.449792035855","6132.6068750349805","394816.4059170522","NA","NA","395320.99579204805","116162.70487505244","6176.136167021468","NA","NA","NA","NA","NA","NA","NA","NA","NA","79977.04770904966","NA","395321.242584032","199690.84675004706","394809.0815000469","NA","116149.68504203716","NA","79976.16812505294","396681.7345840391","NA","69450.71100001223","NA","NA","New experiment","36","165325.88491606293","49","1024"
"72","NA","72","3326","3326","#3d3846","psycho","NA","0","undefined","undefined","0","right","0","0","0","0","0","0","0","49","NA","0","49","0","0","NA","NA","NA","0","NA","NA","NA","NA","NA","0","NA","49","0","49","0","0","0","0","49","0","0","0","NA","Sun Oct 15 14:29:50 2023","20","The main experiment item","yes","CogPsy_Assignment_With_Instruction.osexp","/Users/andrasjoos/Documents/AI Masters/Period 1/Cognitive Psychology/Research project","no","mono","no","18","no","white","no","Manufacturing and Production","yes","768","/Users/andrasjoos/Documents/AI Masters/Period 1/Cognitive Psychology/Research project/results/subject-1.csv","real","Melodramatic Milgram","4.0.5","genuine","left","right","NA","right","right","NA","left","990.696958033368","5363.633583998308","NA","83523.45808397513","28522.920624993276","NA","990.696958033368","NA","NA","2","real_20","1024","2","48000","-16","experiment","1","odd","69452.95683405129","NA","34928.55587502709","92574.15650004987","NA","47096.449792035855","6132.6068750349805","396770.3929170384","NA","NA","397274.66616703896","116162.70487505244","6176.136167021468","NA","NA","NA","NA","NA","NA","NA","NA","NA","79977.04770904966","NA","397274.8437090195","199690.84675004706","396762.97475001775","NA","116149.68504203716","NA","79976.16812505294","398267.77100004256","NA","69450.71100001223","NA","NA","New experiment","36","166316.5818740963","50","1024"
"70","NA","70","3272","3272","#3d3846","psycho","NA","0","undefined","undefined","0","left","0","0","0","0","0","0","0","50","NA","0","50","0","0","NA","NA","NA","0","NA","NA","NA","NA","NA","0","NA","50","0","50","0","0","0","0","50","0","0","0","NA","Sun Oct 15 14:29:50 2023","50","The main experiment item","yes","CogPsy_Assignment_With_Instruction.osexp","/Users/andrasjoos/Documents/AI Masters/Period 1/Cognitive Psychology/Research project","no","mono","no","18","no","white","no","Manufacturing and Production","yes","768","/Users/andrasjoos/Documents/AI Masters/Period 1/Cognitive Psychology/Research project/results/subject-1.csv","fake","Melodramatic Milgram","4.0.5","NoNumOnThread_BlurryWatermark","right","right","NA","right","right","NA","right","564.1552919987589","5363.633583998308","NA","83523.45808397513","28522.920624993276","NA","564.1552919987589","NA","NA","2","fake_2_50","1024","2","48000","-16","experiment","1","odd","69452.95683405129","NA","34928.55587502709","92574.15650004987","NA","47096.449792035855","6132.6068750349805","398385.6442090473","NA","NA","398893.4620000073","116162.70487505244","6176.136167021468","NA","NA","NA","NA","NA","NA","NA","NA","NA","79977.04770904966","NA","398893.6135000549","199690.84675004706","398380.42441703146","NA","116149.68504203716","NA","79976.16812505294","399459.23666702583","NA","69450.71100001223","NA","NA","New experiment","36","166880.73716609506","51","1024"
"71","NA","71","3219","3219","#3d3846","psycho","NA","1","undefined","undefined","1","right","0","0","0","0","0","0","0","51","NA","0","51","0","0","NA","NA","NA","0","NA","NA","NA","NA","NA","0","NA","51","0","51","0","0","0","0","51","0","0","0","NA","Sun Oct 15 14:29:50 2023","20","The main experiment item","yes","CogPsy_Assignment_With_Instruction.osexp","/Users/andrasjoos/Documents/AI Masters/Period 1/Cognitive Psychology/Research project","no","mono","no","18","no","white","no","Manufacturing and Production","yes","768","/Users/andrasjoos/Documents/AI Masters/Period 1/Cognitive Psychology/Research project/results/subject-1.csv","real","Melodramatic Milgram","4.0.5","photo","right","right","NA","right","right","NA","right","538.6667910497636","5363.633583998308","NA","83523.45808397513","28522.920624993276","NA","538.6667910497636","NA","NA","2","real_20","1024","2","48000","-16","experiment","1","odd","69452.95683405129","NA","34928.55587502709","92574.15650004987","NA","47096.449792035855","6132.6068750349805","399595.1333750272","NA","NA","400099.70645903377","116162.70487505244","6176.136167021468","NA","NA","NA","NA","NA","NA","NA","NA","NA","79977.04770904966","NA","400099.8864590074","199690.84675004706","399589.78025004035","NA","116149.68504203716","NA","79976.16812505294","400640.0419170386","NA","69450.71100001223","NA","NA","New experiment","37","167419.40395714482","52","1024"
"71","NA","71","3234","3234","#3d3846","psycho","NA","1","undefined","undefined","1","left","0","0","0","0","0","0","0","52","NA","0","52","0","0","NA","NA","NA","0","NA","NA","NA","NA","NA","0","NA","52","0","52","0","0","0","0","52","0","0","0","NA","Sun Oct 15 14:29:50 2023","50","The main experiment item","yes","CogPsy_Assignment_With_Instruction.osexp","/Users/andrasjoos/Documents/AI Masters/Period 1/Cognitive Psychology/Research project","no","mono","no","18","no","white","no","Manufacturing and Production","yes","768","/Users/andrasjoos/Documents/AI Masters/Period 1/Cognitive Psychology/Research project/results/subject-1.csv","fake","Melodramatic Milgram","4.0.5","GreyDenomination","left","right","NA","right","right","NA","left","4019.9071249808185","5363.633583998308","NA","83523.45808397513","28522.920624993276","NA","4019.9071249808185","NA","NA","2","fake_2_50","1024","2","48000","-16","experiment","1","odd","69452.95683405129","NA","34928.55587502709","92574.15650004987","NA","47096.449792035855","6132.6068750349805","400752.58829200175","NA","NA","401256.58425001893","116162.70487505244","6176.136167021468","NA","NA","NA","NA","NA","NA","NA","NA","NA","79977.04770904966","NA","401256.7418750259","199690.84675004706","400747.61329201283","NA","116149.68504203716","NA","79976.16812505294","405291.66458401596","NA","69450.71100001223","NA","NA","New experiment","38","171439.31108212564","53","1024"
"70","NA","70","3205","3205","#3d3846","psycho","NA","0","undefined","undefined","0","left","0","0","0","0","0","0","0","53","NA","0","53","0","0","NA","NA","NA","0","NA","NA","NA","NA","NA","0","NA","53","0","53","0","0","0","0","53","0","0","0","NA","Sun Oct 15 14:29:50 2023","50","The main experiment item","yes","CogPsy_Assignment_With_Instruction.osexp","/Users/andrasjoos/Documents/AI Masters/Period 1/Cognitive Psychology/Research project","no","mono","no","18","no","white","no","Manufacturing and Production","yes","768","/Users/andrasjoos/Documents/AI Masters/Period 1/Cognitive Psychology/Research project/results/subject-1.csv","fake","Melodramatic Milgram","4.0.5","PurpleDenomination","right","right","NA","right","right","NA","right","1675.0195419881493","5363.633583998308","NA","83523.45808397513","28522.920624993276","NA","1675.0195419881493","NA","NA","2","fake_2_50","1024","2","48000","-16","experiment","1","odd","69452.95683405129","NA","34928.55587502709","92574.15650004987","NA","47096.449792035855","6132.6068750349805","405528.19325000746","NA","NA","406033.30579202157","116162.70487505244","6176.136167021468","NA","NA","NA","NA","NA","NA","NA","NA","NA","79977.04770904966","NA","406033.45500002615","199690.84675004706","405490.5907920329","NA","116149.68504203716","NA","79976.16812505294","407710.21154202754","NA","69450.71100001223","NA","NA","New experiment","38","173114.3306241138","54","1024"
"70","NA","70","3205","3205","#3d3846","psycho","NA","0","undefined","undefined","0","left","0","0","0","0","0","0","0","53","NA","0","53","0","0","NA","NA","NA","0","NA","NA","NA","NA","NA","0","NA","53","0","53","0","0","0","0","53","0","0","0","NA","Sun Oct 15 14:29:50 2023","50","The main experiment item","yes","CogPsy_Assignment_With_Instruction.osexp","/Users/andrasjoos/Documents/AI Masters/Period 1/Cognitive Psychology/Research project","no","mono","no","18","no","white","no","The head of Europea on the left, the color or the number on the bottom left, the look of the holographic patches, overall texture","yes","768","/Users/andrasjoos/Documents/AI Masters/Period 1/Cognitive Psychology/Research project/results/subject-1.csv","fake","Melodramatic Milgram","4.0.5","PurpleDenomination","The head of Europea on the left, the color or the number on the bottom left, the look of the holographic patches, overall texture","right","NA","right","right","NA","right","1675.0195419881493","5363.633583998308","NA","83523.45808397513","28522.920624993276","NA","1675.0195419881493","NA","NA","2","fake_2_50","1024","2","48000","-16","experiment","1","odd","69452.95683405129","NA","34928.55587502709","92574.15650004987","NA","47096.449792035855","6132.6068750349805","405528.19325000746","NA","NA","406033.30579202157","116162.70487505244","6176.136167021468","NA","NA","NA","500146.0542920395","NA","NA","NA","NA","NA","79977.04770904966","NA","406033.45500002615","199690.84675004706","405490.5907920329","NA","116149.68504203716","407759.2295000213","79976.16812505294","407710.21154202754","NA","69450.71100001223","NA","NA","New experiment","38","173114.3306241138","54","1024"
"70","NA","70","3205","3205","#3d3846","psycho","NA","0","undefined","undefined","0","left","0","0","0","0","0","0","0","53","NA","0","53","0","0","NA","NA","NA","0","NA","NA","NA","NA","NA","0","NA","53","0","53","0","0","0","0","53","0","0","0","NA","Sun Oct 15 14:29:50 2023","50","The main experiment item","yes","CogPsy_Assignment_With_Instruction.osexp","/Users/andrasjoos/Documents/AI Masters/Period 1/Cognitive Psychology/Research project","no","mono","no","18","no","white","no","Ok","yes","768","/Users/andrasjoos/Documents/AI Masters/Period 1/Cognitive Psychology/Research project/results/subject-1.csv","fake","Melodramatic Milgram","4.0.5","PurpleDenomination","Silver strip (security thread);UV hologram;Colors of text;Watermark","right","NA","right","right","NA","right","1675.0195419881493","5363.633583998308","NA","83523.45808397513","28522.920624993276","NA","1675.0195419881493","NA","NA","2","fake_2_50","1024","2","48000","-16","experiment","1","odd","69452.95683405129","NA","34928.55587502709","92574.15650004987","NA","47096.449792035855","6132.6068750349805","405528.19325000746","NA","NA","406033.30579202157","116162.70487505244","6176.136167021468","NA","NA","NA","500146.0542920395","NA","NA","NA","NA","NA","79977.04770904966","NA","406033.45500002615","199690.84675004706","405490.5907920329","NA","116149.68504203716","407759.2295000213","79976.16812505294","407710.21154202754","NA","69450.71100001223","533236.3070840365","NA","New experiment","38","173114.3306241138","54","1024"
