"acc","accept_status","accuracy","average_response_time","avg_rt","background","canvas_backend","checkbox_status","correct","correct_consent_sketchpad","correct_instruction_sketchpad","correct_new_keyboard_response","correct_response","count_age_form","count_checkbox_security_form","count_consent_sketchpad","count_country_logger","count_eurozone_form","count_eurozone_logger","count_experiment","count_fixation_dots","count_getting_started","count_goodbye_sketchpad","count_images_sketchpad","count_information_display_sketchpad","count_instruction_sketchpad","count_new_1_form_base","count_new_1_form_text_input","count_new_1_sketchpad","count_new_2_logger","count_new_4_form_multiple_choice","count_new_form_base","count_new_form_consent","count_new_form_multiple_choice","count_new_form_text_display","count_new_form_text_input","count_new_inline_script","count_new_keyboard_response","count_new_loop","count_new_sequence","count_occupation_form","count_occupation_logger","count_open_security_input_form","count_personal_data_logger","count_response_logger","count_schooling_level_form","count_schooling_logger","count_security_feature_logger","count_welcome","datetime","denomination","description","disable_garbage_collection","experiment_file","experiment_path","font_bold","font_family","font_italic","font_size","font_underline","foreground","form_clicks","form_response","fullscreen","height","logfile","note_type","opensesame_codename","opensesame_version","reason","response","response_consent_sketchpad","response_goodbye_sketchpad","response_information_display_sketchpad","response_instruction_sketchpad","response_new_1_sketchpad","response_new_keyboard_response","response_time","response_time_consent_sketchpad","response_time_goodbye_sketchpad","response_time_information_display_sketchpad","response_time_instruction_sketchpad","response_time_new_1_sketchpad","response_time_new_keyboard_response","response_time_welcome","response_welcome","round_decimals","show","sound_buf_size","sound_channels","sound_freq","sound_sample_size","start","subject_nr","subject_parity","time_age_form","time_checkbox_security_form","time_consent_sketchpad","time_country_logger","time_eurozone_form","time_eurozone_logger","time_experiment","time_fixation_dots","time_getting_started","time_goodbye_sketchpad","time_images_sketchpad","time_information_display_sketchpad","time_instruction_sketchpad","time_new_1_form_base","time_new_1_form_text_input","time_new_1_sketchpad","time_new_2_logger","time_new_4_form_multiple_choice","time_new_form_base","time_new_form_consent","time_new_form_multiple_choice","time_new_form_text_display","time_new_form_text_input","time_new_inline_script","time_new_keyboard_response","time_new_loop","time_new_sequence","time_occupation_form","time_occupation_logger","time_open_security_input_form","time_personal_data_logger","time_response_logger","time_schooling_level_form","time_schooling_logger","time_security_feature_logger","time_welcome","title","total_correct","total_response_time","total_responses","width"
"undefined","NA","undefined","undefined","undefined","#3d3846","psycho","NA","undefined","undefined","undefined","NA","NA","0","0","0","0","0","0","0","NA","NA","0","NA","0","0","NA","NA","NA","0","NA","NA","NA","NA","NA","0","NA","NA","0","NA","0","0","0","0","NA","0","0","0","NA","Fri Oct 27 16:23:28 2023","NA","The main experiment item","yes","CogPsy_Assignment_With_Instruction.osexp","/Users/andrasjoos/Documents/AI Masters/Period 1/Cognitive Psychology/Research project","no","mono","no","18","no","white","no","Yes","yes","768","/Users/andrasjoos/Documents/AI Masters/Period 1/Cognitive Psychology/Research project/subject-8.csv","NA","Melodramatic Milgram","4.0.5","NA","Yes","right","NA","NA","right","NA","NA","2831.9027919787914","2831.9027919787914","NA","NA","8419.86475000158","NA","NA","NA","NA","2","NA","1024","2","48000","-16","experiment","8","even","NA","NA","16176.100375014357","NA","NA","24059.589042008156","7317.5085420079995","NA","NA","NA","NA","NA","7563.236999994842","NA","NA","NA","NA","NA","NA","NA","NA","NA","NA","NA","NA","NA","NA","NA","NA","NA","NA","NA","NA","NA","NA","NA","New experiment","0","0","0","1024"
"undefined","NA","undefined","undefined","undefined","#3d3846","psycho","NA","undefined","undefined","undefined","NA","NA","0","0","0","0","0","0","0","NA","NA","0","NA","0","0","NA","NA","NA","0","NA","NA","NA","NA","NA","0","NA","NA","0","NA","0","0","0","0","NA","0","0","0","NA","Fri Oct 27 16:23:28 2023","NA","The main experiment item","yes","CogPsy_Assignment_With_Instruction.osexp","/Users/andrasjoos/Documents/AI Masters/Period 1/Cognitive Psychology/Research project","no","mono","no","18","no","white","no","Bachelors","yes","768","/Users/andrasjoos/Documents/AI Masters/Period 1/Cognitive Psychology/Research project/subject-8.csv","NA","Melodramatic Milgram","4.0.5","NA","Bachelors","right","NA","NA","right","NA","NA","2831.9027919787914","2831.9027919787914","NA","NA","8419.86475000158","NA","NA","NA","NA","2","NA","1024","2","48000","-16","experiment","8","even","NA","NA","16176.100375014357","NA","NA","24059.589042008156","7317.5085420079995","NA","NA","NA","NA","NA","7563.236999994842","NA","NA","NA","NA","NA","NA","NA","NA","NA","NA","NA","NA","NA","NA","NA","NA","NA","NA","NA","NA","30797.30520900921","NA","NA","New experiment","0","0","0","1024"
"undefined","NA","undefined","undefined","undefined","#3d3846","psycho","NA","undefined","undefined","undefined","NA","NA","0","0","0","0","0","0","0","NA","NA","0","NA","0","0","NA","NA","NA","0","NA","NA","NA","NA","NA","0","NA","NA","0","NA","0","0","0","0","NA","0","0","0","NA","Fri Oct 27 16:23:28 2023","NA","The main experiment item","yes","CogPsy_Assignment_With_Instruction.osexp","/Users/andrasjoos/Documents/AI Masters/Period 1/Cognitive Psychology/Research project","no","mono","no","18","no","white","no","24","yes","768","/Users/andrasjoos/Documents/AI Masters/Period 1/Cognitive Psychology/Research project/subject-8.csv","NA","Melodramatic Milgram","4.0.5","NA","24","right","NA","NA","right","NA","NA","2831.9027919787914","2831.9027919787914","NA","NA","8419.86475000158","NA","NA","NA","NA","2","NA","1024","2","48000","-16","experiment","8","even","30798.01783399307","NA","16176.100375014357","NA","NA","24059.589042008156","7317.5085420079995","NA","NA","NA","NA","NA","7563.236999994842","NA","NA","NA","NA","NA","NA","NA","NA","NA","NA","NA","NA","NA","NA","NA","NA","NA","34963.400417007506","NA","NA","30797.30520900921","NA","NA","New experiment","0","0","0","1024"
"undefined","NA","undefined","undefined","undefined","#3d3846","psycho","NA","undefined","undefined","undefined","NA","NA","0","0","0","0","0","0","0","NA","NA","0","NA","0","0","NA","NA","NA","0","NA","NA","NA","NA","NA","0","NA","NA","0","NA","0","0","0","0","NA","0","0","0","NA","Fri Oct 27 16:23:28 2023","NA","The main experiment item","yes","CogPsy_Assignment_With_Instruction.osexp","/Users/andrasjoos/Documents/AI Masters/Period 1/Cognitive Psychology/Research project","no","mono","no","18","no","white","no","dutch","yes","768","/Users/andrasjoos/Documents/AI Masters/Period 1/Cognitive Psychology/Research project/subject-8.csv","NA","Melodramatic Milgram","4.0.5","NA","dutch","right","NA","NA","right","NA","NA","2831.9027919787914","2831.9027919787914","NA","NA","8419.86475000158","NA","NA","NA","NA","2","NA","1024","2","48000","-16","experiment","8","even","30798.01783399307","NA","16176.100375014357","41740.75991701102","NA","24059.589042008156","7317.5085420079995","NA","NA","NA","NA","NA","7563.236999994842","NA","NA","NA","NA","NA","NA","NA","NA","NA","34963.91808401677","NA","NA","NA","NA","NA","NA","NA","34963.400417007506","NA","NA","30797.30520900921","NA","NA","New experiment","0","0","0","1024"
"undefined","NA","undefined","undefined","undefined","#3d3846","psycho","NA","undefined","undefined","undefined","NA","NA","0","0","0","0","0","0","0","NA","NA","0","NA","0","0","NA","NA","NA","0","NA","NA","NA","NA","NA","0","NA","NA","0","NA","0","0","0","0","NA","0","0","0","NA","Fri Oct 27 16:23:28 2023","NA","The main experiment item","yes","CogPsy_Assignment_With_Instruction.osexp","/Users/andrasjoos/Documents/AI Masters/Period 1/Cognitive Psychology/Research project","no","mono","no","18","no","white","no","Student","yes","768","/Users/andrasjoos/Documents/AI Masters/Period 1/Cognitive Psychology/Research project/subject-8.csv","NA","Melodramatic Milgram","4.0.5","NA","Student","right","NA","NA","right","NA","NA","2831.9027919787914","2831.9027919787914","NA","NA","8419.86475000158","NA","NA","NA","NA","2","NA","1024","2","48000","-16","experiment","8","even","30798.01783399307","NA","16176.100375014357","41740.75991701102","NA","24059.589042008156","7317.5085420079995","NA","NA","NA","NA","NA","7563.236999994842","NA","NA","NA","NA","NA","NA","NA","NA","NA","34963.91808401677","NA","NA","NA","NA","NA","47474.001416994724","NA","34963.400417007506","NA","NA","30797.30520900921","NA","NA","New experiment","0","0","0","1024"
"100","NA","100","6866","6866","#3d3846","psycho","NA","1","undefined","undefined","1","right","0","0","0","0","0","0","0","0","NA","0","0","0","0","NA","NA","NA","0","NA","NA","NA","NA","NA","0","NA","0","0","0","0","0","0","0","0","0","0","0","NA","Fri Oct 27 16:23:28 2023","50","The main experiment item","yes","CogPsy_Assignment_With_Instruction.osexp","/Users/andrasjoos/Documents/AI Masters/Period 1/Cognitive Psychology/Research project","no","mono","no","18","no","white","no","Student","yes","768","/Users/andrasjoos/Documents/AI Masters/Period 1/Cognitive Psychology/Research project/subject-8.csv","real","Melodramatic Milgram","4.0.5","photo","right","right","NA","right","right","NA","right","6866.467250016285","2831.9027919787914","NA","2251.3623329869006","8419.86475000158","NA","6866.467250016285","NA","NA","2","real_50","1024","2","48000","-16","experiment","8","even","30798.01783399307","NA","16176.100375014357","41740.75991701102","NA","24059.589042008156","7317.5085420079995","49800.54745901725","NA","NA","50304.64495901833","47483.25683400617","7563.236999994842","NA","NA","NA","NA","NA","NA","NA","NA","NA","34963.91808401677","NA","50304.76374999853","49735.85954200826","49790.90399999404","NA","47474.001416994724","NA","34963.400417007506","57172.65883399523","NA","30797.30520900921","NA","NA","New experiment","1","6866.467250016285","1","1024"
"100","NA","100","5647","5647","#3d3846","psycho","NA","1","undefined","undefined","1","right","0","0","0","0","0","0","0","1","NA","0","1","0","0","NA","NA","NA","0","NA","NA","NA","NA","NA","0","NA","1","0","1","0","0","0","0","1","0","0","0","NA","Fri Oct 27 16:23:28 2023","50","The main experiment item","yes","CogPsy_Assignment_With_Instruction.osexp","/Users/andrasjoos/Documents/AI Masters/Period 1/Cognitive Psychology/Research project","no","mono","no","18","no","white","no","Student","yes","768","/Users/andrasjoos/Documents/AI Masters/Period 1/Cognitive Psychology/Research project/subject-8.csv","real","Melodramatic Milgram","4.0.5","photo_2","right","right","NA","right","right","NA","right","4427.730583003722","2831.9027919787914","NA","2251.3623329869006","8419.86475000158","NA","4427.730583003722","NA","NA","2","real_50","1024","2","48000","-16","experiment","8","even","30798.01783399307","NA","16176.100375014357","41740.75991701102","NA","24059.589042008156","7317.5085420079995","57330.78520899289","NA","NA","57834.74970899988","47483.25683400617","7563.236999994842","NA","NA","NA","NA","NA","NA","NA","NA","NA","34963.91808401677","NA","57834.87458399031","49735.85954200826","57321.9838750083","NA","47474.001416994724","NA","34963.400417007506","62264.15983401239","NA","30797.30520900921","NA","NA","New experiment","2","11294.197833020007","2","1024"
"66","NA","66","8367","8367","#3d3846","psycho","NA","0","undefined","undefined","0","left","0","0","0","0","0","0","0","2","NA","0","2","0","0","NA","NA","NA","0","NA","NA","NA","NA","NA","0","NA","2","0","2","0","0","0","0","2","0","0","0","NA","Fri Oct 27 16:23:28 2023","20","The main experiment item","yes","CogPsy_Assignment_With_Instruction.osexp","/Users/andrasjoos/Documents/AI Masters/Period 1/Cognitive Psychology/Research project","no","mono","no","18","no","white","no","Student","yes","768","/Users/andrasjoos/Documents/AI Masters/Period 1/Cognitive Psychology/Research project/subject-8.csv","fake","Melodramatic Milgram","4.0.5","BadInk","right","right","NA","right","right","NA","right","13807.963957980974","2831.9027919787914","NA","2251.3623329869006","8419.86475000158","NA","13807.963957980974","NA","NA","2","fake_20","1024","2","48000","-16","experiment","8","even","30798.01783399307","NA","16176.100375014357","41740.75991701102","NA","24059.589042008156","7317.5085420079995","62361.995959014166","NA","NA","62865.81370900967","47483.25683400617","7563.236999994842","NA","NA","NA","NA","NA","NA","NA","NA","NA","34963.91808401677","NA","62865.93270901358","49735.85954200826","62354.94433401618","NA","47474.001416994724","NA","34963.400417007506","76675.56470900308","NA","30797.30520900921","NA","NA","New experiment","2","25102.16179100098","3","1024"
"75","NA","75","8362","8362","#3d3846","psycho","NA","1","undefined","undefined","1","right","0","0","0","0","0","0","0","3","NA","0","3","0","0","NA","NA","NA","0","NA","NA","NA","NA","NA","0","NA","3","0","3","0","0","0","0","3","0","0","0","NA","Fri Oct 27 16:23:28 2023","20","The main experiment item","yes","CogPsy_Assignment_With_Instruction.osexp","/Users/andrasjoos/Documents/AI Masters/Period 1/Cognitive Psychology/Research project","no","mono","no","18","no","white","no","Student","yes","768","/Users/andrasjoos/Documents/AI Masters/Period 1/Cognitive Psychology/Research project/subject-8.csv","real","Melodramatic Milgram","4.0.5","photo","right","right","NA","right","right","NA","right","8347.887709009228","2831.9027919787914","NA","2251.3623329869006","8419.86475000158","NA","8347.887709009228","NA","NA","2","real_20","1024","2","48000","-16","experiment","8","even","30798.01783399307","NA","16176.100375014357","41740.75991701102","NA","24059.589042008156","7317.5085420079995","76829.62462501018","NA","NA","77335.50304200617","47483.25683400617","7563.236999994842","NA","NA","NA","NA","NA","NA","NA","NA","NA","34963.91808401677","NA","77335.61249999912","49735.85954200826","76786.68266700697","NA","47474.001416994724","NA","34963.400417007506","85684.80108401855","NA","30797.30520900921","NA","NA","New experiment","3","33450.04950001021","4","1024"
"80","NA","80","8316","8316","#3d3846","psycho","NA","1","undefined","undefined","1","right","0","0","0","0","0","0","0","4","NA","0","4","0","0","NA","NA","NA","0","NA","NA","NA","NA","NA","0","NA","4","0","4","0","0","0","0","4","0","0","0","NA","Fri Oct 27 16:23:28 2023","20","The main experiment item","yes","CogPsy_Assignment_With_Instruction.osexp","/Users/andrasjoos/Documents/AI Masters/Period 1/Cognitive Psychology/Research project","no","mono","no","18","no","white","no","Student","yes","768","/Users/andrasjoos/Documents/AI Masters/Period 1/Cognitive Psychology/Research project/subject-8.csv","real","Melodramatic Milgram","4.0.5","genuine","right","right","NA","right","right","NA","right","8133.457707997877","2831.9027919787914","NA","2251.3623329869006","8419.86475000158","NA","8133.457707997877","NA","NA","2","real_20","1024","2","48000","-16","experiment","8","even","30798.01783399307","NA","16176.100375014357","41740.75991701102","NA","24059.589042008156","7317.5085420079995","85809.49783400865","NA","NA","86314.03362500714","47483.25683400617","7563.236999994842","NA","NA","NA","NA","NA","NA","NA","NA","NA","34963.91808401677","NA","86314.22133400338","49735.85954200826","85783.26108399779","NA","47474.001416994724","NA","34963.400417007506","94449.15670901537","NA","30797.30520900921","NA","NA","New experiment","4","41583.507208008086","5","1024"
"66","NA","66","8474","8474","#3d3846","psycho","NA","0","undefined","undefined","0","left","0","0","0","0","0","0","0","5","NA","0","5","0","0","NA","NA","NA","0","NA","NA","NA","NA","NA","0","NA","5","0","5","0","0","0","0","5","0","0","0","NA","Fri Oct 27 16:23:28 2023","20","The main experiment item","yes","CogPsy_Assignment_With_Instruction.osexp","/Users/andrasjoos/Documents/AI Masters/Period 1/Cognitive Psychology/Research project","no","mono","no","18","no","white","no","Student","yes","768","/Users/andrasjoos/Documents/AI Masters/Period 1/Cognitive Psychology/Research project/subject-8.csv","fake","Melodramatic Milgram","4.0.5","DullHologram","right","right","NA","right","right","NA","right","9264.57929200842","2831.9027919787914","NA","2251.3623329869006","8419.86475000158","NA","9264.57929200842","NA","NA","2","fake_20","1024","2","48000","-16","experiment","8","even","30798.01783399307","NA","16176.100375014357","41740.75991701102","NA","24059.589042008156","7317.5085420079995","94546.9881670142","NA","NA","95051.21537501691","47483.25683400617","7563.236999994842","NA","NA","NA","NA","NA","NA","NA","NA","NA","34963.91808401677","NA","95051.33112499607","49735.85954200826","94538.47766699619","NA","47474.001416994724","NA","34963.400417007506","104317.08487501601","NA","30797.30520900921","NA","NA","New experiment","4","50848.08650001651","6","1024"
"57","NA","57","8087","8087","#3d3846","psycho","NA","0","undefined","undefined","0","left","0","0","0","0","0","0","0","6","NA","0","6","0","0","NA","NA","NA","0","NA","NA","NA","NA","NA","0","NA","6","0","6","0","0","0","0","6","0","0","0","NA","Fri Oct 27 16:23:28 2023","20","The main experiment item","yes","CogPsy_Assignment_With_Instruction.osexp","/Users/andrasjoos/Documents/AI Masters/Period 1/Cognitive Psychology/Research project","no","mono","no","18","no","white","no","Student","yes","768","/Users/andrasjoos/Documents/AI Masters/Period 1/Cognitive Psychology/Research project/subject-8.csv","fake","Melodramatic Milgram","4.0.5","DullHologram","right","right","NA","right","right","NA","right","5767.02254099655","2831.9027919787914","NA","2251.3623329869006","8419.86475000158","NA","5767.02254099655","NA","NA","2","fake_20","1024","2","48000","-16","experiment","8","even","30798.01783399307","NA","16176.100375014357","41740.75991701102","NA","24059.589042008156","7317.5085420079995","104411.63254200364","NA","NA","104915.67254200345","47483.25683400617","7563.236999994842","NA","NA","NA","NA","NA","NA","NA","NA","NA","34963.91808401677","NA","104915.79033399466","49735.85954200826","104403.13958399929","NA","47474.001416994724","NA","34963.400417007506","110684.33662501047","NA","30797.30520900921","NA","NA","New experiment","4","56615.10904101306","7","1024"
"50","NA","50","7706","7706","#3d3846","psycho","NA","0","undefined","undefined","0","left","0","0","0","0","0","0","0","7","NA","0","7","0","0","NA","NA","NA","0","NA","NA","NA","NA","NA","0","NA","7","0","7","0","0","0","0","7","0","0","0","NA","Fri Oct 27 16:23:28 2023","20","The main experiment item","yes","CogPsy_Assignment_With_Instruction.osexp","/Users/andrasjoos/Documents/AI Masters/Period 1/Cognitive Psychology/Research project","no","mono","no","18","no","white","no","Student","yes","768","/Users/andrasjoos/Documents/AI Masters/Period 1/Cognitive Psychology/Research project/subject-8.csv","fake","Melodramatic Milgram","4.0.5","BadInk2","right","right","NA","right","right","NA","right","5033.002624986693","2831.9027919787914","NA","2251.3623329869006","8419.86475000158","NA","5033.002624986693","NA","NA","2","fake_20","1024","2","48000","-16","experiment","8","even","30798.01783399307","NA","16176.100375014357","41740.75991701102","NA","24059.589042008156","7317.5085420079995","110790.88391701225","NA","NA","111294.67758399551","47483.25683400617","7563.236999994842","NA","NA","NA","NA","NA","NA","NA","NA","NA","34963.91808401677","NA","111294.79291700409","49735.85954200826","110782.82970900182","NA","47474.001416994724","NA","34963.400417007506","116328.9157919935","NA","30797.30520900921","NA","NA","New experiment","4","61648.11166599975","8","1024"
"44","NA","44","7190","7190","#3d3846","psycho","NA","0","undefined","undefined","0","left","0","0","0","0","0","0","0","8","NA","0","8","0","0","NA","NA","NA","0","NA","NA","NA","NA","NA","0","NA","8","0","8","0","0","0","0","8","0","0","0","NA","Fri Oct 27 16:23:28 2023","20","The main experiment item","yes","CogPsy_Assignment_With_Instruction.osexp","/Users/andrasjoos/Documents/AI Masters/Period 1/Cognitive Psychology/Research project","no","mono","no","18","no","white","no","Student","yes","768","/Users/andrasjoos/Documents/AI Masters/Period 1/Cognitive Psychology/Research project/subject-8.csv","fake","Melodramatic Milgram","4.0.5","DullHologram2","right","right","NA","right","right","NA","right","3062.8255829797126","2831.9027919787914","NA","2251.3623329869006","8419.86475000158","NA","3062.8255829797126","NA","NA","2","fake_20","1024","2","48000","-16","experiment","8","even","30798.01783399307","NA","16176.100375014357","41740.75991701102","NA","24059.589042008156","7317.5085420079995","116423.75987500418","NA","NA","116927.65749999671","47483.25683400617","7563.236999994842","NA","NA","NA","NA","NA","NA","NA","NA","NA","34963.91808401677","NA","116927.77154201758","49735.85954200826","116415.56112500257","NA","47474.001416994724","NA","34963.400417007506","119991.84529201011","NA","30797.30520900921","NA","NA","New experiment","4","64710.93724897946","9","1024"
"40","NA","40","6958","6958","#3d3846","psycho","NA","0","undefined","undefined","0","right","0","0","0","0","0","0","0","9","NA","0","9","0","0","NA","NA","NA","0","NA","NA","NA","NA","NA","0","NA","9","0","9","0","0","0","0","9","0","0","0","NA","Fri Oct 27 16:23:28 2023","50","The main experiment item","yes","CogPsy_Assignment_With_Instruction.osexp","/Users/andrasjoos/Documents/AI Masters/Period 1/Cognitive Psychology/Research project","no","mono","no","18","no","white","no","Student","yes","768","/Users/andrasjoos/Documents/AI Masters/Period 1/Cognitive Psychology/Research project/subject-8.csv","real","Melodramatic Milgram","4.0.5","genuine","left","right","NA","right","right","NA","left","4876.7165830067825","2831.9027919787914","NA","2251.3623329869006","8419.86475000158","NA","4876.7165830067825","NA","NA","2","real_50","1024","2","48000","-16","experiment","8","even","30798.01783399307","NA","16176.100375014357","41740.75991701102","NA","24059.589042008156","7317.5085420079995","120065.60112501029","NA","NA","120569.73666700651","47483.25683400617","7563.236999994842","NA","NA","NA","NA","NA","NA","NA","NA","NA","34963.91808401677","NA","120569.85345899011","49735.85954200826","120057.53970899968","NA","47474.001416994724","NA","34963.400417007506","125449.2932500143","NA","30797.30520900921","NA","NA","New experiment","4","69587.65383198624","10","1024"
"36","NA","36","6624","6624","#3d3846","psycho","NA","0","undefined","undefined","0","left","0","0","0","0","0","0","0","10","NA","0","10","0","0","NA","NA","NA","0","NA","NA","NA","NA","NA","0","NA","10","0","10","0","0","0","0","10","0","0","0","NA","Fri Oct 27 16:23:28 2023","20","The main experiment item","yes","CogPsy_Assignment_With_Instruction.osexp","/Users/andrasjoos/Documents/AI Masters/Period 1/Cognitive Psychology/Research project","no","mono","no","18","no","white","no","Student","yes","768","/Users/andrasjoos/Documents/AI Masters/Period 1/Cognitive Psychology/Research project/subject-8.csv","fake","Melodramatic Milgram","4.0.5","DullHologram2","right","right","NA","right","right","NA","right","3279.3561249854974","2831.9027919787914","NA","2251.3623329869006","8419.86475000158","NA","3279.3561249854974","NA","NA","2","fake_20","1024","2","48000","-16","experiment","8","even","30798.01783399307","NA","16176.100375014357","41740.75991701102","NA","24059.589042008156","7317.5085420079995","125541.25704200123","NA","NA","126045.93137500342","47483.25683400617","7563.236999994842","NA","NA","NA","NA","NA","NA","NA","NA","NA","34963.91808401677","NA","126046.0589590075","49735.85954200826","125534.29400001187","NA","47474.001416994724","NA","34963.400417007506","129326.60233401111","NA","30797.30520900921","NA","NA","New experiment","4","72867.00995697174","11","1024"
"41","NA","41","6247","6247","#3d3846","psycho","NA","1","undefined","undefined","1","left","0","0","0","0","0","0","0","11","NA","0","11","0","0","NA","NA","NA","0","NA","NA","NA","NA","NA","0","NA","11","0","11","0","0","0","0","11","0","0","0","NA","Fri Oct 27 16:23:28 2023","50","The main experiment item","yes","CogPsy_Assignment_With_Instruction.osexp","/Users/andrasjoos/Documents/AI Masters/Period 1/Cognitive Psychology/Research project","no","mono","no","18","no","white","no","Student","yes","768","/Users/andrasjoos/Documents/AI Masters/Period 1/Cognitive Psychology/Research project/subject-8.csv","fake","Melodramatic Milgram","4.0.5","PurpleDenomination3","left","right","NA","right","right","NA","left","2098.3923749881797","2831.9027919787914","NA","2251.3623329869006","8419.86475000158","NA","2098.3923749881797","NA","NA","2","fake_2_50","1024","2","48000","-16","experiment","8","even","30798.01783399307","NA","16176.100375014357","41740.75991701102","NA","24059.589042008156","7317.5085420079995","129424.04845901183","NA","NA","129927.87262500497","47483.25683400617","7563.236999994842","NA","NA","NA","NA","NA","NA","NA","NA","NA","34963.91808401677","NA","129927.99500000547","49735.85954200826","129416.69112499221","NA","47474.001416994724","NA","34963.400417007506","132027.47495900257","NA","30797.30520900921","NA","NA","New experiment","5","74965.40233195992","12","1024"
"38","NA","38","5960","5960","#3d3846","psycho","NA","0","undefined","undefined","0","right","0","0","0","0","0","0","0","12","NA","0","12","0","0","NA","NA","NA","0","NA","NA","NA","NA","NA","0","NA","12","0","12","0","0","0","0","12","0","0","0","NA","Fri Oct 27 16:23:28 2023","50","The main experiment item","yes","CogPsy_Assignment_With_Instruction.osexp","/Users/andrasjoos/Documents/AI Masters/Period 1/Cognitive Psychology/Research project","no","mono","no","18","no","white","no","Student","yes","768","/Users/andrasjoos/Documents/AI Masters/Period 1/Cognitive Psychology/Research project/subject-8.csv","real","Melodramatic Milgram","4.0.5","genuine","left","right","NA","right","right","NA","left","2525.9345000085887","2831.9027919787914","NA","2251.3623329869006","8419.86475000158","NA","2525.9345000085887","NA","NA","2","real_50","1024","2","48000","-16","experiment","8","even","30798.01783399307","NA","16176.100375014357","41740.75991701102","NA","24059.589042008156","7317.5085420079995","132098.70695899008","NA","NA","132602.4585000123","47483.25683400617","7563.236999994842","NA","NA","NA","NA","NA","NA","NA","NA","NA","34963.91808401677","NA","132602.57787498995","49735.85954200826","132092.43008401245","NA","47474.001416994724","NA","34963.400417007506","135129.63420900633","NA","30797.30520900921","NA","NA","New experiment","5","77491.33683196851","13","1024"
"35","NA","35","5717","5717","#3d3846","psycho","NA","0","undefined","undefined","0","left","0","0","0","0","0","0","0","13","NA","0","13","0","0","NA","NA","NA","0","NA","NA","NA","NA","NA","0","NA","13","0","13","0","0","0","0","13","0","0","0","NA","Fri Oct 27 16:23:28 2023","50","The main experiment item","yes","CogPsy_Assignment_With_Instruction.osexp","/Users/andrasjoos/Documents/AI Masters/Period 1/Cognitive Psychology/Research project","no","mono","no","18","no","white","no","Student","yes","768","/Users/andrasjoos/Documents/AI Masters/Period 1/Cognitive Psychology/Research project/subject-8.csv","fake","Melodramatic Milgram","4.0.5","PurpleDenomination","right","right","NA","right","right","NA","right","2557.116499985568","2831.9027919787914","NA","2251.3623329869006","8419.86475000158","NA","2557.116499985568","NA","NA","2","fake_2_50","1024","2","48000","-16","experiment","8","even","30798.01783399307","NA","16176.100375014357","41740.75991701102","NA","24059.589042008156","7317.5085420079995","135220.59670899762","NA","NA","135724.32895901147","47483.25683400617","7563.236999994842","NA","NA","NA","NA","NA","NA","NA","NA","NA","34963.91808401677","NA","135724.44308400736","49735.85954200826","135214.33124999749","NA","47474.001416994724","NA","34963.400417007506","138282.71274999133","NA","30797.30520900921","NA","NA","New experiment","5","80048.45333195408","14","1024"
"40","NA","40","5588","5588","#3d3846","psycho","NA","1","undefined","undefined","1","right","0","0","0","0","0","0","0","14","NA","0","14","0","0","NA","NA","NA","0","NA","NA","NA","NA","NA","0","NA","14","0","14","0","0","0","0","14","0","0","0","NA","Fri Oct 27 16:23:28 2023","50","The main experiment item","yes","CogPsy_Assignment_With_Instruction.osexp","/Users/andrasjoos/Documents/AI Masters/Period 1/Cognitive Psychology/Research project","no","mono","no","18","no","white","no","Student","yes","768","/Users/andrasjoos/Documents/AI Masters/Period 1/Cognitive Psychology/Research project/subject-8.csv","real","Melodramatic Milgram","4.0.5","photo","right","right","NA","right","right","NA","right","3773.562624992337","2831.9027919787914","NA","2251.3623329869006","8419.86475000158","NA","3773.562624992337","NA","NA","2","real_50","1024","2","48000","-16","experiment","8","even","30798.01783399307","NA","16176.100375014357","41740.75991701102","NA","24059.589042008156","7317.5085420079995","138377.4116669956","NA","NA","138881.33475001086","47483.25683400617","7563.236999994842","NA","NA","NA","NA","NA","NA","NA","NA","NA","34963.91808401677","NA","138881.45425001858","49735.85954200826","138370.92304200632","NA","47474.001416994724","NA","34963.400417007506","142656.17458400084","NA","30797.30520900921","NA","NA","New experiment","6","83822.01595694642","15","1024"
"37","NA","37","5339","5339","#3d3846","psycho","NA","0","undefined","undefined","0","left","0","0","0","0","0","0","0","15","NA","0","15","0","0","NA","NA","NA","0","NA","NA","NA","NA","NA","0","NA","15","0","15","0","0","0","0","15","0","0","0","NA","Fri Oct 27 16:23:28 2023","50","The main experiment item","yes","CogPsy_Assignment_With_Instruction.osexp","/Users/andrasjoos/Documents/AI Masters/Period 1/Cognitive Psychology/Research project","no","mono","no","18","no","white","no","Student","yes","768","/Users/andrasjoos/Documents/AI Masters/Period 1/Cognitive Psychology/Research project/subject-8.csv","fake","Melodramatic Milgram","4.0.5","BadInk","right","right","NA","right","right","NA","right","1616.2746250047348","2831.9027919787914","NA","2251.3623329869006","8419.86475000158","NA","1616.2746250047348","NA","NA","2","fake_2_50","1024","2","48000","-16","experiment","8","even","30798.01783399307","NA","16176.100375014357","41740.75991701102","NA","24059.589042008156","7317.5085420079995","142760.2176250075","NA","NA","143264.37141699716","47483.25683400617","7563.236999994842","NA","NA","NA","NA","NA","NA","NA","NA","NA","34963.91808401677","NA","143264.49137501186","49735.85954200826","142752.22770901746","NA","47474.001416994724","NA","34963.400417007506","144881.9229590008","NA","30797.30520900921","NA","NA","New experiment","6","85438.29058195115","16","1024"
"35","NA","35","5126","5126","#3d3846","psycho","NA","0","undefined","undefined","0","left","0","0","0","0","0","0","0","16","NA","0","16","0","0","NA","NA","NA","0","NA","NA","NA","NA","NA","0","NA","16","0","16","0","0","0","0","16","0","0","0","NA","Fri Oct 27 16:23:28 2023","20","The main experiment item","yes","CogPsy_Assignment_With_Instruction.osexp","/Users/andrasjoos/Documents/AI Masters/Period 1/Cognitive Psychology/Research project","no","mono","no","18","no","white","no","Student","yes","768","/Users/andrasjoos/Documents/AI Masters/Period 1/Cognitive Psychology/Research project/subject-8.csv","fake","Melodramatic Milgram","4.0.5","NoNumOnThread_BlurryWatermark","right","right","NA","right","right","NA","right","1706.7321659997106","2831.9027919787914","NA","2251.3623329869006","8419.86475000158","NA","1706.7321659997106","NA","NA","2","fake_20","1024","2","48000","-16","experiment","8","even","30798.01783399307","NA","16176.100375014357","41740.75991701102","NA","24059.589042008156","7317.5085420079995","144993.85604201234","NA","NA","145498.49745898973","47483.25683400617","7563.236999994842","NA","NA","NA","NA","NA","NA","NA","NA","NA","34963.91808401677","NA","145498.66270899656","49735.85954200826","144986.8439999991","NA","47474.001416994724","NA","34963.400417007506","147206.7734170123","NA","30797.30520900921","NA","NA","New experiment","6","87145.02274795086","17","1024"
"38","NA","38","4907","4907","#3d3846","psycho","NA","1","undefined","undefined","1","right","0","0","0","0","0","0","0","17","NA","0","17","0","0","NA","NA","NA","0","NA","NA","NA","NA","NA","0","NA","17","0","17","0","0","0","0","17","0","0","0","NA","Fri Oct 27 16:23:28 2023","20","The main experiment item","yes","CogPsy_Assignment_With_Instruction.osexp","/Users/andrasjoos/Documents/AI Masters/Period 1/Cognitive Psychology/Research project","no","mono","no","18","no","white","no","Student","yes","768","/Users/andrasjoos/Documents/AI Masters/Period 1/Cognitive Psychology/Research project/subject-8.csv","real","Melodramatic Milgram","4.0.5","photo","right","right","NA","right","right","NA","right","1183.9880409825128","2831.9027919787914","NA","2251.3623329869006","8419.86475000158","NA","1183.9880409825128","NA","NA","2","real_20","1024","2","48000","-16","experiment","8","even","30798.01783399307","NA","16176.100375014357","41740.75991701102","NA","24059.589042008156","7317.5085420079995","147320.59416701668","NA","NA","147824.52520899824","47483.25683400617","7563.236999994842","NA","NA","NA","NA","NA","NA","NA","NA","NA","34963.91808401677","NA","147824.64933401207","49735.85954200826","147313.55141699896","NA","47474.001416994724","NA","34963.400417007506","149009.8197920015","NA","30797.30520900921","NA","NA","New experiment","7","88329.01078893337","18","1024"
"42","NA","42","4756","4756","#3d3846","psycho","NA","1","undefined","undefined","1","left","0","0","0","0","0","0","0","18","NA","0","18","0","0","NA","NA","NA","0","NA","NA","NA","NA","NA","0","NA","18","0","18","0","0","0","0","18","0","0","0","NA","Fri Oct 27 16:23:28 2023","50","The main experiment item","yes","CogPsy_Assignment_With_Instruction.osexp","/Users/andrasjoos/Documents/AI Masters/Period 1/Cognitive Psychology/Research project","no","mono","no","18","no","white","no","Student","yes","768","/Users/andrasjoos/Documents/AI Masters/Period 1/Cognitive Psychology/Research project/subject-8.csv","fake","Melodramatic Milgram","4.0.5","silver_strip","left","right","NA","right","right","NA","left","2038.3029999793507","2831.9027919787914","NA","2251.3623329869006","8419.86475000158","NA","2038.3029999793507","NA","NA","2","fake_2_50","1024","2","48000","-16","experiment","8","even","30798.01783399307","NA","16176.100375014357","41740.75991701102","NA","24059.589042008156","7317.5085420079995","149082.21991700702","NA","NA","149586.22270901105","47483.25683400617","7563.236999994842","NA","NA","NA","NA","NA","NA","NA","NA","NA","34963.91808401677","NA","149586.34479201282","49735.85954200826","149075.9669590043","NA","47474.001416994724","NA","34963.400417007506","151625.95295900246","NA","30797.30520900921","NA","NA","New experiment","8","90367.31378891272","19","1024"
"40","NA","40","4640","4640","#3d3846","psycho","NA","0","undefined","undefined","0","left","0","0","0","0","0","0","0","19","NA","0","19","0","0","NA","NA","NA","0","NA","NA","NA","NA","NA","0","NA","19","0","19","0","0","0","0","19","0","0","0","NA","Fri Oct 27 16:23:28 2023","50","The main experiment item","yes","CogPsy_Assignment_With_Instruction.osexp","/Users/andrasjoos/Documents/AI Masters/Period 1/Cognitive Psychology/Research project","no","mono","no","18","no","white","no","Student","yes","768","/Users/andrasjoos/Documents/AI Masters/Period 1/Cognitive Psychology/Research project/subject-8.csv","fake","Melodramatic Milgram","4.0.5","NoNumOnThread_BlurryWatermark","right","right","NA","right","right","NA","right","2433.591124980012","2831.9027919787914","NA","2251.3623329869006","8419.86475000158","NA","2433.591124980012","NA","NA","2","fake_2_50","1024","2","48000","-16","experiment","8","even","30798.01783399307","NA","16176.100375014357","41740.75991701102","NA","24059.589042008156","7317.5085420079995","151720.83616699092","NA","NA","152224.56274999422","47483.25683400617","7563.236999994842","NA","NA","NA","NA","NA","NA","NA","NA","NA","34963.91808401677","NA","152224.67733401572","49735.85954200826","151712.5872920151","NA","47474.001416994724","NA","34963.400417007506","154660.2253339952","NA","30797.30520900921","NA","NA","New experiment","8","92800.90491389274","20","1024"
"38","NA","38","4456","4456","#3d3846","psycho","NA","0","undefined","undefined","0","left","0","0","0","0","0","0","0","20","NA","0","20","0","0","NA","NA","NA","0","NA","NA","NA","NA","NA","0","NA","20","0","20","0","0","0","0","20","0","0","0","NA","Fri Oct 27 16:23:28 2023","20","The main experiment item","yes","CogPsy_Assignment_With_Instruction.osexp","/Users/andrasjoos/Documents/AI Masters/Period 1/Cognitive Psychology/Research project","no","mono","no","18","no","white","no","Student","yes","768","/Users/andrasjoos/Documents/AI Masters/Period 1/Cognitive Psychology/Research project/subject-8.csv","fake","Melodramatic Milgram","4.0.5","PurpleDenomination","right","right","NA","right","right","NA","right","794.0444579871837","2831.9027919787914","NA","2251.3623329869006","8419.86475000158","NA","794.0444579871837","NA","NA","2","fake_20","1024","2","48000","-16","experiment","8","even","30798.01783399307","NA","16176.100375014357","41740.75991701102","NA","24059.589042008156","7317.5085420079995","154766.59074999043","NA","NA","155270.5622499925","47483.25683400617","7563.236999994842","NA","NA","NA","NA","NA","NA","NA","NA","NA","34963.91808401677","NA","155270.67645901116","49735.85954200826","154755.89137501083","NA","47474.001416994724","NA","34963.400417007506","156065.8199590107","NA","30797.30520900921","NA","NA","New experiment","8","93594.94937187992","21","1024"
"40","NA","40","4287","4287","#3d3846","psycho","NA","1","undefined","undefined","1","left","0","0","0","0","0","0","0","21","NA","0","21","0","0","NA","NA","NA","0","NA","NA","NA","NA","NA","0","NA","21","0","21","0","0","0","0","21","0","0","0","NA","Fri Oct 27 16:23:28 2023","50","The main experiment item","yes","CogPsy_Assignment_With_Instruction.osexp","/Users/andrasjoos/Documents/AI Masters/Period 1/Cognitive Psychology/Research project","no","mono","no","18","no","white","no","Student","yes","768","/Users/andrasjoos/Documents/AI Masters/Period 1/Cognitive Psychology/Research project/subject-8.csv","fake","Melodramatic Milgram","4.0.5","PurpleDenomination3","left","right","NA","right","right","NA","left","721.5028750069905","2831.9027919787914","NA","2251.3623329869006","8419.86475000158","NA","721.5028750069905","NA","NA","2","fake_2_50","1024","2","48000","-16","experiment","8","even","30798.01783399307","NA","16176.100375014357","41740.75991701102","NA","24059.589042008156","7317.5085420079995","156157.73750000517","NA","NA","156662.0055840176","47483.25683400617","7563.236999994842","NA","NA","NA","NA","NA","NA","NA","NA","NA","34963.91808401677","NA","156662.12374999304","49735.85954200826","156153.31404199242","NA","47474.001416994724","NA","34963.400417007506","157384.71887499327","NA","30797.30520900921","NA","NA","New experiment","9","94316.45224688691","22","1024"
"43","NA","43","4268","4268","#3d3846","psycho","NA","1","undefined","undefined","1","left","0","0","0","0","0","0","0","22","NA","0","22","0","0","NA","NA","NA","0","NA","NA","NA","NA","NA","0","NA","22","0","22","0","0","0","0","22","0","0","0","NA","Fri Oct 27 16:23:28 2023","20","The main experiment item","yes","CogPsy_Assignment_With_Instruction.osexp","/Users/andrasjoos/Documents/AI Masters/Period 1/Cognitive Psychology/Research project","no","mono","no","18","no","white","no","Student","yes","768","/Users/andrasjoos/Documents/AI Masters/Period 1/Cognitive Psychology/Research project/subject-8.csv","fake","Melodramatic Milgram","4.0.5","silver_strip","left","right","NA","right","right","NA","left","3853.059042012319","2831.9027919787914","NA","2251.3623329869006","8419.86475000158","NA","3853.059042012319","NA","NA","2","fake_2_20","1024","2","48000","-16","experiment","8","even","30798.01783399307","NA","16176.100375014357","41740.75991701102","NA","24059.589042008156","7317.5085420079995","157460.41270901333","NA","NA","157964.81925001717","47483.25683400617","7563.236999994842","NA","NA","NA","NA","NA","NA","NA","NA","NA","34963.91808401677","NA","157964.94741700008","49735.85954200826","157455.99975000368","NA","47474.001416994724","NA","34963.400417007506","161819.28008398972","NA","30797.30520900921","NA","NA","New experiment","10","98169.51128889923","23","1024"
"45","NA","45","4215","4215","#3d3846","psycho","NA","1","undefined","undefined","1","right","0","0","0","0","0","0","0","23","NA","0","23","0","0","NA","NA","NA","0","NA","NA","NA","NA","NA","0","NA","23","0","23","0","0","0","0","23","0","0","0","NA","Fri Oct 27 16:23:28 2023","50","The main experiment item","yes","CogPsy_Assignment_With_Instruction.osexp","/Users/andrasjoos/Documents/AI Masters/Period 1/Cognitive Psychology/Research project","no","mono","no","18","no","white","no","Student","yes","768","/Users/andrasjoos/Documents/AI Masters/Period 1/Cognitive Psychology/Research project/subject-8.csv","real","Melodramatic Milgram","4.0.5","photo","right","right","NA","right","right","NA","right","3009.245875000488","2831.9027919787914","NA","2251.3623329869006","8419.86475000158","NA","3009.245875000488","NA","NA","2","real_50","1024","2","48000","-16","experiment","8","even","30798.01783399307","NA","16176.100375014357","41740.75991701102","NA","24059.589042008156","7317.5085420079995","161916.7858750152","NA","NA","162420.74833399965","47483.25683400617","7563.236999994842","NA","NA","NA","NA","NA","NA","NA","NA","NA","34963.91808401677","NA","162420.85941700498","49735.85954200826","161908.64549999242","NA","47474.001416994724","NA","34963.400417007506","165431.34058400756","NA","30797.30520900921","NA","NA","New experiment","11","101178.75716389972","24","1024"
"48","NA","48","4079","4079","#3d3846","psycho","NA","1","undefined","undefined","1","left","0","0","0","0","0","0","0","24","NA","0","24","0","0","NA","NA","NA","0","NA","NA","NA","NA","NA","0","NA","24","0","24","0","0","0","0","24","0","0","0","NA","Fri Oct 27 16:23:28 2023","50","The main experiment item","yes","CogPsy_Assignment_With_Instruction.osexp","/Users/andrasjoos/Documents/AI Masters/Period 1/Cognitive Psychology/Research project","no","mono","no","18","no","white","no","Student","yes","768","/Users/andrasjoos/Documents/AI Masters/Period 1/Cognitive Psychology/Research project/subject-8.csv","fake","Melodramatic Milgram","4.0.5","silver_strip","left","right","NA","right","right","NA","left","803.9715419872664","2831.9027919787914","NA","2251.3623329869006","8419.86475000158","NA","803.9715419872664","NA","NA","2","fake_2_50","1024","2","48000","-16","experiment","8","even","30798.01783399307","NA","16176.100375014357","41740.75991701102","NA","24059.589042008156","7317.5085420079995","165506.08929200098","NA","NA","166009.89775001653","47483.25683400617","7563.236999994842","NA","NA","NA","NA","NA","NA","NA","NA","NA","34963.91808401677","NA","166010.0040420075","49735.85954200826","165498.98129201028","NA","47474.001416994724","NA","34963.400417007506","166815.21237498964","NA","30797.30520900921","NA","NA","New experiment","12","101982.72870588698","25","1024"
"46","NA","46","3997","3997","#3d3846","psycho","NA","0","undefined","undefined","0","left","0","0","0","0","0","0","0","25","NA","0","25","0","0","NA","NA","NA","0","NA","NA","NA","NA","NA","0","NA","25","0","25","0","0","0","0","25","0","0","0","NA","Fri Oct 27 16:23:28 2023","20","The main experiment item","yes","CogPsy_Assignment_With_Instruction.osexp","/Users/andrasjoos/Documents/AI Masters/Period 1/Cognitive Psychology/Research project","no","mono","no","18","no","white","no","Student","yes","768","/Users/andrasjoos/Documents/AI Masters/Period 1/Cognitive Psychology/Research project/subject-8.csv","fake","Melodramatic Milgram","4.0.5","BadInk2","right","right","NA","right","right","NA","right","1939.3717090133578","2831.9027919787914","NA","2251.3623329869006","8419.86475000158","NA","1939.3717090133578","NA","NA","2","fake_20","1024","2","48000","-16","experiment","8","even","30798.01783399307","NA","16176.100375014357","41740.75991701102","NA","24059.589042008156","7317.5085420079995","166916.720542009","NA","NA","167420.6993340049","47483.25683400617","7563.236999994842","NA","NA","NA","NA","NA","NA","NA","NA","NA","34963.91808401677","NA","167420.82050000317","49735.85954200826","166911.80445899954","NA","47474.001416994724","NA","34963.400417007506","169361.35508399457","NA","30797.30520900921","NA","NA","New experiment","12","103922.10041490034","26","1024"
"48","NA","48","3887","3887","#3d3846","psycho","NA","1","undefined","undefined","1","left","0","0","0","0","0","0","0","26","NA","0","26","0","0","NA","NA","NA","0","NA","NA","NA","NA","NA","0","NA","26","0","26","0","0","0","0","26","0","0","0","NA","Fri Oct 27 16:23:28 2023","50","The main experiment item","yes","CogPsy_Assignment_With_Instruction.osexp","/Users/andrasjoos/Documents/AI Masters/Period 1/Cognitive Psychology/Research project","no","mono","no","18","no","white","no","Student","yes","768","/Users/andrasjoos/Documents/AI Masters/Period 1/Cognitive Psychology/Research project/subject-8.csv","fake","Melodramatic Milgram","4.0.5","bottom_left","left","right","NA","right","right","NA","left","1042.8323750093114","2831.9027919787914","NA","2251.3623329869006","8419.86475000158","NA","1042.8323750093114","NA","NA","2","fake_1_50","1024","2","48000","-16","experiment","8","even","30798.01783399307","NA","16176.100375014357","41740.75991701102","NA","24059.589042008156","7317.5085420079995","169432.2478340182","NA","NA","169935.99895900115","47483.25683400617","7563.236999994842","NA","NA","NA","NA","NA","NA","NA","NA","NA","34963.91808401677","NA","169936.12158400356","49735.85954200826","169425.72400000063","NA","47474.001416994724","NA","34963.400417007506","170980.11458400288","NA","30797.30520900921","NA","NA","New experiment","13","104964.93278990965","27","1024"
"50","NA","50","3921","3921","#3d3846","psycho","NA","1","undefined","undefined","1","right","0","0","0","0","0","0","0","27","NA","0","27","0","0","NA","NA","NA","0","NA","NA","NA","NA","NA","0","NA","27","0","27","0","0","0","0","27","0","0","0","NA","Fri Oct 27 16:23:28 2023","50","The main experiment item","yes","CogPsy_Assignment_With_Instruction.osexp","/Users/andrasjoos/Documents/AI Masters/Period 1/Cognitive Psychology/Research project","no","mono","no","18","no","white","no","Student","yes","768","/Users/andrasjoos/Documents/AI Masters/Period 1/Cognitive Psychology/Research project/subject-8.csv","real","Melodramatic Milgram","4.0.5","photo_2","right","right","NA","right","right","NA","right","4850.201540975831","2831.9027919787914","NA","2251.3623329869006","8419.86475000158","NA","4850.201540975831","NA","NA","2","real_50","1024","2","48000","-16","experiment","8","even","30798.01783399307","NA","16176.100375014357","41740.75991701102","NA","24059.589042008156","7317.5085420079995","171067.12479199632","NA","NA","171571.01562499884","47483.25683400617","7563.236999994842","NA","NA","NA","NA","NA","NA","NA","NA","NA","34963.91808401677","NA","171571.13708401448","49735.85954200826","171060.37254200783","NA","47474.001416994724","NA","34963.400417007506","176423.1335420045","NA","30797.30520900921","NA","NA","New experiment","14","109815.13433088548","28","1024"
"48","NA","48","4016","4016","#3d3846","psycho","NA","0","undefined","undefined","0","left","0","0","0","0","0","0","0","28","NA","0","28","0","0","NA","NA","NA","0","NA","NA","NA","NA","NA","0","NA","28","0","28","0","0","0","0","28","0","0","0","NA","Fri Oct 27 16:23:28 2023","20","The main experiment item","yes","CogPsy_Assignment_With_Instruction.osexp","/Users/andrasjoos/Documents/AI Masters/Period 1/Cognitive Psychology/Research project","no","mono","no","18","no","white","no","Student","yes","768","/Users/andrasjoos/Documents/AI Masters/Period 1/Cognitive Psychology/Research project/subject-8.csv","fake","Melodramatic Milgram","4.0.5","NoNumOnThread_BlurryWatermark","right","right","NA","right","right","NA","right","6665.186583006289","2831.9027919787914","NA","2251.3623329869006","8419.86475000158","NA","6665.186583006289","NA","NA","2","fake_20","1024","2","48000","-16","experiment","8","even","30798.01783399307","NA","16176.100375014357","41740.75991701102","NA","24059.589042008156","7317.5085420079995","176535.27516699978","NA","NA","177039.26258400315","47483.25683400617","7563.236999994842","NA","NA","NA","NA","NA","NA","NA","NA","NA","34963.91808401677","NA","177039.36991700903","49735.85954200826","176527.6360840071","NA","47474.001416994724","NA","34963.400417007506","183705.82704199478","NA","30797.30520900921","NA","NA","New experiment","14","116480.32091389177","29","1024"
"46","NA","46","3935","3935","#3d3846","psycho","NA","0","undefined","undefined","0","left","0","0","0","0","0","0","0","29","NA","0","29","0","0","NA","NA","NA","0","NA","NA","NA","NA","NA","0","NA","29","0","29","0","0","0","0","29","0","0","0","NA","Fri Oct 27 16:23:28 2023","20","The main experiment item","yes","CogPsy_Assignment_With_Instruction.osexp","/Users/andrasjoos/Documents/AI Masters/Period 1/Cognitive Psychology/Research project","no","mono","no","18","no","white","no","Student","yes","768","/Users/andrasjoos/Documents/AI Masters/Period 1/Cognitive Psychology/Research project/subject-8.csv","fake","Melodramatic Milgram","4.0.5","bottom_left","right","right","NA","right","right","NA","right","1580.9679579979274","2831.9027919787914","NA","2251.3623329869006","8419.86475000158","NA","1580.9679579979274","NA","NA","2","fake_1_20","1024","2","48000","-16","experiment","8","even","30798.01783399307","NA","16176.100375014357","41740.75991701102","NA","24059.589042008156","7317.5085420079995","183779.45512501174","NA","NA","184283.37162500247","47483.25683400617","7563.236999994842","NA","NA","NA","NA","NA","NA","NA","NA","NA","34963.91808401677","NA","184283.4840840078","49735.85954200826","183771.93145899219","NA","47474.001416994724","NA","34963.400417007506","185865.57262501447","NA","30797.30520900921","NA","NA","New experiment","14","118061.2888718897","30","1024"
"45","NA","45","3871","3871","#3d3846","psycho","NA","0","undefined","undefined","0","left","0","0","0","0","0","0","0","30","NA","0","30","0","0","NA","NA","NA","0","NA","NA","NA","NA","NA","0","NA","30","0","30","0","0","0","0","30","0","0","0","NA","Fri Oct 27 16:23:28 2023","50","The main experiment item","yes","CogPsy_Assignment_With_Instruction.osexp","/Users/andrasjoos/Documents/AI Masters/Period 1/Cognitive Psychology/Research project","no","mono","no","18","no","white","no","Student","yes","768","/Users/andrasjoos/Documents/AI Masters/Period 1/Cognitive Psychology/Research project/subject-8.csv","fake","Melodramatic Milgram","4.0.5","PurpleDenomination2","right","right","NA","right","right","NA","right","1960.579415987013","2831.9027919787914","NA","2251.3623329869006","8419.86475000158","NA","1960.579415987013","NA","NA","2","fake_2_50","1024","2","48000","-16","experiment","8","even","30798.01783399307","NA","16176.100375014357","41740.75991701102","NA","24059.589042008156","7317.5085420079995","185958.9591670083","NA","NA","186462.75445900392","47483.25683400617","7563.236999994842","NA","NA","NA","NA","NA","NA","NA","NA","NA","34963.91808401677","NA","186462.86695901654","49735.85954200826","185951.88016700558","NA","47474.001416994724","NA","34963.400417007506","188424.68654201366","NA","30797.30520900921","NA","NA","New experiment","14","120021.86828787671","31","1024"
"46","NA","46","3789","3789","#3d3846","psycho","NA","1","undefined","undefined","1","right","0","0","0","0","0","0","0","31","NA","0","31","0","0","NA","NA","NA","0","NA","NA","NA","NA","NA","0","NA","31","0","31","0","0","0","0","31","0","0","0","NA","Fri Oct 27 16:23:28 2023","20","The main experiment item","yes","CogPsy_Assignment_With_Instruction.osexp","/Users/andrasjoos/Documents/AI Masters/Period 1/Cognitive Psychology/Research project","no","mono","no","18","no","white","no","Student","yes","768","/Users/andrasjoos/Documents/AI Masters/Period 1/Cognitive Psychology/Research project/subject-8.csv","real","Melodramatic Milgram","4.0.5","photo","right","right","NA","right","right","NA","right","1249.351292004576","2831.9027919787914","NA","2251.3623329869006","8419.86475000158","NA","1249.351292004576","NA","NA","2","real_20","1024","2","48000","-16","experiment","8","even","30798.01783399307","NA","16176.100375014357","41740.75991701102","NA","24059.589042008156","7317.5085420079995","188536.16329201031","NA","NA","189039.92545901565","47483.25683400617","7563.236999994842","NA","NA","NA","NA","NA","NA","NA","NA","NA","34963.91808401677","NA","189040.0402499945","49735.85954200826","188529.22020899132","NA","47474.001416994724","NA","34963.400417007506","190291.02779200184","NA","30797.30520900921","NA","NA","New experiment","15","121271.21957988129","32","1024"
"48","NA","48","3696","3696","#3d3846","psycho","NA","1","undefined","undefined","1","left","0","0","0","0","0","0","0","32","NA","0","32","0","0","NA","NA","NA","0","NA","NA","NA","NA","NA","0","NA","32","0","32","0","0","0","0","32","0","0","0","NA","Fri Oct 27 16:23:28 2023","20","The main experiment item","yes","CogPsy_Assignment_With_Instruction.osexp","/Users/andrasjoos/Documents/AI Masters/Period 1/Cognitive Psychology/Research project","no","mono","no","18","no","white","no","Student","yes","768","/Users/andrasjoos/Documents/AI Masters/Period 1/Cognitive Psychology/Research project/subject-8.csv","fake","Melodramatic Milgram","4.0.5","silver_strip","left","right","NA","right","right","NA","left","713.9015840075444","2831.9027919787914","NA","2251.3623329869006","8419.86475000158","NA","713.9015840075444","NA","NA","2","fake_2_20","1024","2","48000","-16","experiment","8","even","30798.01783399307","NA","16176.100375014357","41740.75991701102","NA","24059.589042008156","7317.5085420079995","190367.72695899708","NA","NA","190871.40804200317","47483.25683400617","7563.236999994842","NA","NA","NA","NA","NA","NA","NA","NA","NA","34963.91808401677","NA","190871.52074999176","49735.85954200826","190361.45558400312","NA","47474.001416994724","NA","34963.400417007506","191586.53712499654","NA","30797.30520900921","NA","NA","New experiment","16","121985.12116388883","33","1024"
"47","NA","47","3607","3607","#3d3846","psycho","NA","0","undefined","undefined","0","right","0","0","0","0","0","0","0","33","NA","0","33","0","0","NA","NA","NA","0","NA","NA","NA","NA","NA","0","NA","33","0","33","0","0","0","0","33","0","0","0","NA","Fri Oct 27 16:23:28 2023","50","The main experiment item","yes","CogPsy_Assignment_With_Instruction.osexp","/Users/andrasjoos/Documents/AI Masters/Period 1/Cognitive Psychology/Research project","no","mono","no","18","no","white","no","Student","yes","768","/Users/andrasjoos/Documents/AI Masters/Period 1/Cognitive Psychology/Research project/subject-8.csv","real","Melodramatic Milgram","4.0.5","genuine","left","right","NA","right","right","NA","left","682.3291250038892","2831.9027919787914","NA","2251.3623329869006","8419.86475000158","NA","682.3291250038892","NA","NA","2","real_20","1024","2","48000","-16","experiment","8","even","30798.01783399307","NA","16176.100375014357","41740.75991701102","NA","24059.589042008156","7317.5085420079995","191656.30595901166","NA","NA","192160.03495900077","47483.25683400617","7563.236999994842","NA","NA","NA","NA","NA","NA","NA","NA","NA","34963.91808401677","NA","192160.1460420061","49735.85954200826","191651.93945899955","NA","47474.001416994724","NA","34963.400417007506","192843.6203750025","NA","30797.30520900921","NA","NA","New experiment","16","122667.45028889272","34","1024"
"45","NA","45","3545","3545","#3d3846","psycho","NA","0","undefined","undefined","0","left","0","0","0","0","0","0","0","34","NA","0","34","0","0","NA","NA","NA","0","NA","NA","NA","NA","NA","0","NA","34","0","34","0","0","0","0","34","0","0","0","NA","Fri Oct 27 16:23:28 2023","50","The main experiment item","yes","CogPsy_Assignment_With_Instruction.osexp","/Users/andrasjoos/Documents/AI Masters/Period 1/Cognitive Psychology/Research project","no","mono","no","18","no","white","no","Student","yes","768","/Users/andrasjoos/Documents/AI Masters/Period 1/Cognitive Psychology/Research project/subject-8.csv","fake","Melodramatic Milgram","4.0.5","NoNumOnThread_BlurryWatermark","right","right","NA","right","right","NA","right","1414.8356249788776","2831.9027919787914","NA","2251.3623329869006","8419.86475000158","NA","1414.8356249788776","NA","NA","2","fake_2_50","1024","2","48000","-16","experiment","8","even","30798.01783399307","NA","16176.100375014357","41740.75991701102","NA","24059.589042008156","7317.5085420079995","192934.7988340014","NA","NA","193438.5962499946","47483.25683400617","7563.236999994842","NA","NA","NA","NA","NA","NA","NA","NA","NA","34963.91808401677","NA","193438.71687501087","49735.85954200826","192929.85570899327","NA","47474.001416994724","NA","34963.400417007506","194854.91075000027","NA","30797.30520900921","NA","NA","New experiment","16","124082.2859138716","35","1024"
"47","NA","47","3474","3474","#3d3846","psycho","NA","1","undefined","undefined","1","right","0","0","0","0","0","0","0","35","NA","0","35","0","0","NA","NA","NA","0","NA","NA","NA","NA","NA","0","NA","35","0","35","0","0","0","0","35","0","0","0","NA","Fri Oct 27 16:23:28 2023","50","The main experiment item","yes","CogPsy_Assignment_With_Instruction.osexp","/Users/andrasjoos/Documents/AI Masters/Period 1/Cognitive Psychology/Research project","no","mono","no","18","no","white","no","Student","yes","768","/Users/andrasjoos/Documents/AI Masters/Period 1/Cognitive Psychology/Research project/subject-8.csv","real","Melodramatic Milgram","4.0.5","photo_2","right","right","NA","right","right","NA","right","1013.6996250075754","2831.9027919787914","NA","2251.3623329869006","8419.86475000158","NA","1013.6996250075754","NA","NA","2","real_50","1024","2","48000","-16","experiment","8","even","30798.01783399307","NA","16176.100375014357","41740.75991701102","NA","24059.589042008156","7317.5085420079995","194940.43941699783","NA","NA","195444.02525000623","47483.25683400617","7563.236999994842","NA","NA","NA","NA","NA","NA","NA","NA","NA","34963.91808401677","NA","195444.13437499315","49735.85954200826","194934.08495900803","NA","47474.001416994724","NA","34963.400417007506","196459.05700000003","NA","30797.30520900921","NA","NA","New experiment","17","125095.98553887918","36","1024"
"48","NA","48","3409","3409","#3d3846","psycho","NA","1","undefined","undefined","1","right","0","0","0","0","0","0","0","36","NA","0","36","0","0","NA","NA","NA","0","NA","NA","NA","NA","NA","0","NA","36","0","36","0","0","0","0","36","0","0","0","NA","Fri Oct 27 16:23:28 2023","20","The main experiment item","yes","CogPsy_Assignment_With_Instruction.osexp","/Users/andrasjoos/Documents/AI Masters/Period 1/Cognitive Psychology/Research project","no","mono","no","18","no","white","no","Student","yes","768","/Users/andrasjoos/Documents/AI Masters/Period 1/Cognitive Psychology/Research project/subject-8.csv","real","Melodramatic Milgram","4.0.5","genuine","right","right","NA","right","right","NA","right","1065.4164589941502","2831.9027919787914","NA","2251.3623329869006","8419.86475000158","NA","1065.4164589941502","NA","NA","2","real_20","1024","2","48000","-16","experiment","8","even","30798.01783399307","NA","16176.100375014357","41740.75991701102","NA","24059.589042008156","7317.5085420079995","196529.23600000213","NA","NA","197033.0724590167","47483.25683400617","7563.236999994842","NA","NA","NA","NA","NA","NA","NA","NA","NA","34963.91808401677","NA","197033.17762500956","49735.85954200826","196524.59512499627","NA","47474.001416994724","NA","34963.400417007506","198099.7870840074","NA","30797.30520900921","NA","NA","New experiment","18","126161.40199787333","37","1024"
"50","NA","50","3366","3366","#3d3846","psycho","NA","1","undefined","undefined","1","left","0","0","0","0","0","0","0","37","NA","0","37","0","0","NA","NA","NA","0","NA","NA","NA","NA","NA","0","NA","37","0","37","0","0","0","0","37","0","0","0","NA","Fri Oct 27 16:23:28 2023","20","The main experiment item","yes","CogPsy_Assignment_With_Instruction.osexp","/Users/andrasjoos/Documents/AI Masters/Period 1/Cognitive Psychology/Research project","no","mono","no","18","no","white","no","Student","yes","768","/Users/andrasjoos/Documents/AI Masters/Period 1/Cognitive Psychology/Research project/subject-8.csv","fake","Melodramatic Milgram","4.0.5","BrownDenomination","left","right","NA","right","right","NA","left","1763.2218330109026","2831.9027919787914","NA","2251.3623329869006","8419.86475000158","NA","1763.2218330109026","NA","NA","2","fake_20","1024","2","48000","-16","experiment","8","even","30798.01783399307","NA","16176.100375014357","41740.75991701102","NA","24059.589042008156","7317.5085420079995","198193.9545420173","NA","NA","198697.48383399565","47483.25683400617","7563.236999994842","NA","NA","NA","NA","NA","NA","NA","NA","NA","34963.91808401677","NA","198697.59079199866","49735.85954200826","198186.97358400095","NA","47474.001416994724","NA","34963.400417007506","200463.5094999976","NA","30797.30520900921","NA","NA","New experiment","19","127924.62383088423","38","1024"
"48","NA","48","3297","3297","#3d3846","psycho","NA","0","undefined","undefined","0","right","0","0","0","0","0","0","0","38","NA","0","38","0","0","NA","NA","NA","0","NA","NA","NA","NA","NA","0","NA","38","0","38","0","0","0","0","38","0","0","0","NA","Fri Oct 27 16:23:28 2023","20","The main experiment item","yes","CogPsy_Assignment_With_Instruction.osexp","/Users/andrasjoos/Documents/AI Masters/Period 1/Cognitive Psychology/Research project","no","mono","no","18","no","white","no","Student","yes","768","/Users/andrasjoos/Documents/AI Masters/Period 1/Cognitive Psychology/Research project/subject-8.csv","real","Melodramatic Milgram","4.0.5","genuine","left","right","NA","right","right","NA","left","685.6672919820994","2831.9027919787914","NA","2251.3623329869006","8419.86475000158","NA","685.6672919820994","NA","NA","2","real_20","1024","2","48000","-16","experiment","8","even","30798.01783399307","NA","16176.100375014357","41740.75991701102","NA","24059.589042008156","7317.5085420079995","200554.88008400425","NA","NA","201059.0356250177","47483.25683400617","7563.236999994842","NA","NA","NA","NA","NA","NA","NA","NA","NA","34963.91808401677","NA","201059.1531250102","49735.85954200826","200544.592249993","NA","47474.001416994724","NA","34963.400417007506","201746.20595900342","NA","30797.30520900921","NA","NA","New experiment","19","128610.29112286633","39","1024"
"50","NA","50","3294","3294","#3d3846","psycho","NA","1","undefined","undefined","1","left","0","0","0","0","0","0","0","39","NA","0","39","0","0","NA","NA","NA","0","NA","NA","NA","NA","NA","0","NA","39","0","39","0","0","0","0","39","0","0","0","NA","Fri Oct 27 16:23:28 2023","50","The main experiment item","yes","CogPsy_Assignment_With_Instruction.osexp","/Users/andrasjoos/Documents/AI Masters/Period 1/Cognitive Psychology/Research project","no","mono","no","18","no","white","no","Student","yes","768","/Users/andrasjoos/Documents/AI Masters/Period 1/Cognitive Psychology/Research project/subject-8.csv","fake","Melodramatic Milgram","4.0.5","GreyDenomination","left","right","NA","right","right","NA","left","3186.873833008576","2831.9027919787914","NA","2251.3623329869006","8419.86475000158","NA","3186.873833008576","NA","NA","2","fake_2_50","1024","2","48000","-16","experiment","8","even","30798.01783399307","NA","16176.100375014357","41740.75991701102","NA","24059.589042008156","7317.5085420079995","201842.24820899544","NA","NA","202346.57333401265","47483.25683400617","7563.236999994842","NA","NA","NA","NA","NA","NA","NA","NA","NA","34963.91808401677","NA","202346.70466699754","49735.85954200826","201836.58395899693","NA","47474.001416994724","NA","34963.400417007506","205534.91504199337","NA","30797.30520900921","NA","NA","New experiment","20","131797.1649558749","40","1024"
"48","NA","48","3229","3229","#3d3846","psycho","NA","0","undefined","undefined","0","right","0","0","0","0","0","0","0","40","NA","0","40","0","0","NA","NA","NA","0","NA","NA","NA","NA","NA","0","NA","40","0","40","0","0","0","0","40","0","0","0","NA","Fri Oct 27 16:23:28 2023","50","The main experiment item","yes","CogPsy_Assignment_With_Instruction.osexp","/Users/andrasjoos/Documents/AI Masters/Period 1/Cognitive Psychology/Research project","no","mono","no","18","no","white","no","Student","yes","768","/Users/andrasjoos/Documents/AI Masters/Period 1/Cognitive Psychology/Research project/subject-8.csv","real","Melodramatic Milgram","4.0.5","genuine","left","right","NA","right","right","NA","left","620.143417007057","2831.9027919787914","NA","2251.3623329869006","8419.86475000158","NA","620.143417007057","NA","NA","2","real_20","1024","2","48000","-16","experiment","8","even","30798.01783399307","NA","16176.100375014357","41740.75991701102","NA","24059.589042008156","7317.5085420079995","205612.42600000696","NA","NA","206116.40708401683","47483.25683400617","7563.236999994842","NA","NA","NA","NA","NA","NA","NA","NA","NA","34963.91808401677","NA","206116.52887499076","49735.85954200826","205604.4159590092","NA","47474.001416994724","NA","34963.400417007506","206737.9080420069","NA","30797.30520900921","NA","NA","New experiment","20","132417.30837288196","41","1024"
"50","NA","50","3174","3174","#3d3846","psycho","NA","1","undefined","undefined","1","right","0","0","0","0","0","0","0","41","NA","0","41","0","0","NA","NA","NA","0","NA","NA","NA","NA","NA","0","NA","41","0","41","0","0","0","0","41","0","0","0","NA","Fri Oct 27 16:23:28 2023","50","The main experiment item","yes","CogPsy_Assignment_With_Instruction.osexp","/Users/andrasjoos/Documents/AI Masters/Period 1/Cognitive Psychology/Research project","no","mono","no","18","no","white","no","Student","yes","768","/Users/andrasjoos/Documents/AI Masters/Period 1/Cognitive Psychology/Research project/subject-8.csv","real","Melodramatic Milgram","4.0.5","photo","right","right","NA","right","right","NA","right","914.3762500025332","2831.9027919787914","NA","2251.3623329869006","8419.86475000158","NA","914.3762500025332","NA","NA","2","real_50","1024","2","48000","-16","experiment","8","even","30798.01783399307","NA","16176.100375014357","41740.75991701102","NA","24059.589042008156","7317.5085420079995","206832.37208399805","NA","NA","207336.1694170162","47483.25683400617","7563.236999994842","NA","NA","NA","NA","NA","NA","NA","NA","NA","34963.91808401677","NA","207336.28308400512","49735.85954200826","206827.7494170179","NA","47474.001416994724","NA","34963.400417007506","208251.84541699127","NA","30797.30520900921","NA","NA","New experiment","21","133331.6846228845","42","1024"
"51","NA","51","3128","3128","#3d3846","psycho","NA","1","undefined","undefined","1","left","0","0","0","0","0","0","0","42","NA","0","42","0","0","NA","NA","NA","0","NA","NA","NA","NA","NA","0","NA","42","0","42","0","0","0","0","42","0","0","0","NA","Fri Oct 27 16:23:28 2023","20","The main experiment item","yes","CogPsy_Assignment_With_Instruction.osexp","/Users/andrasjoos/Documents/AI Masters/Period 1/Cognitive Psychology/Research project","no","mono","no","18","no","white","no","Student","yes","768","/Users/andrasjoos/Documents/AI Masters/Period 1/Cognitive Psychology/Research project/subject-8.csv","fake","Melodramatic Milgram","4.0.5","bottom_left","left","right","NA","right","right","NA","left","1204.9266249814536","2831.9027919787914","NA","2251.3623329869006","8419.86475000158","NA","1204.9266249814536","NA","NA","2","fake_1_20","1024","2","48000","-16","experiment","8","even","30798.01783399307","NA","16176.100375014357","41740.75991701102","NA","24059.589042008156","7317.5085420079995","208321.91070899717","NA","NA","208825.63829200808","47483.25683400617","7563.236999994842","NA","NA","NA","NA","NA","NA","NA","NA","NA","34963.91808401677","NA","208825.75045901467","49735.85954200826","208317.5951250014","NA","47474.001416994724","NA","34963.400417007506","210031.87979198992","NA","30797.30520900921","NA","NA","New experiment","22","134536.61124786595","43","1024"
"52","NA","52","3076","3076","#3d3846","psycho","NA","1","undefined","undefined","1","left","0","0","0","0","0","0","0","43","NA","0","43","0","0","NA","NA","NA","0","NA","NA","NA","NA","NA","0","NA","43","0","43","0","0","0","0","43","0","0","0","NA","Fri Oct 27 16:23:28 2023","50","The main experiment item","yes","CogPsy_Assignment_With_Instruction.osexp","/Users/andrasjoos/Documents/AI Masters/Period 1/Cognitive Psychology/Research project","no","mono","no","18","no","white","no","Student","yes","768","/Users/andrasjoos/Documents/AI Masters/Period 1/Cognitive Psychology/Research project/subject-8.csv","fake","Melodramatic Milgram","4.0.5","BadInk","left","right","NA","right","right","NA","left","817.3719170154072","2831.9027919787914","NA","2251.3623329869006","8419.86475000158","NA","817.3719170154072","NA","NA","2","fake_2_50","1024","2","48000","-16","experiment","8","even","30798.01783399307","NA","16176.100375014357","41740.75991701102","NA","24059.589042008156","7317.5085420079995","210136.3107090001","NA","NA","210639.95170901762","47483.25683400617","7563.236999994842","NA","NA","NA","NA","NA","NA","NA","NA","NA","34963.91808401677","NA","210640.06212499226","49735.85954200826","210129.27325000055","NA","47474.001416994724","NA","34963.400417007506","211459.02949999436","NA","30797.30520900921","NA","NA","New experiment","23","135353.98316488136","44","1024"
"53","NA","53","3020","3020","#3d3846","psycho","NA","1","undefined","undefined","1","left","0","0","0","0","0","0","0","44","NA","0","44","0","0","NA","NA","NA","0","NA","NA","NA","NA","NA","0","NA","44","0","44","0","0","0","0","44","0","0","0","NA","Fri Oct 27 16:23:28 2023","20","The main experiment item","yes","CogPsy_Assignment_With_Instruction.osexp","/Users/andrasjoos/Documents/AI Masters/Period 1/Cognitive Psychology/Research project","no","mono","no","18","no","white","no","Student","yes","768","/Users/andrasjoos/Documents/AI Masters/Period 1/Cognitive Psychology/Research project/subject-8.csv","fake","Melodramatic Milgram","4.0.5","BrownDenomination","left","right","NA","right","right","NA","left","588.5639170010109","2831.9027919787914","NA","2251.3623329869006","8419.86475000158","NA","588.5639170010109","NA","NA","2","fake_20","1024","2","48000","-16","experiment","8","even","30798.01783399307","NA","16176.100375014357","41740.75991701102","NA","24059.589042008156","7317.5085420079995","211568.3777499944","NA","NA","212072.07279201248","47483.25683400617","7563.236999994842","NA","NA","NA","NA","NA","NA","NA","NA","NA","34963.91808401677","NA","212072.187999991","49735.85954200826","211557.65525001334","NA","47474.001416994724","NA","34963.400417007506","212662.0469590125","NA","30797.30520900921","NA","NA","New experiment","24","135942.54708188237","45","1024"
"52","NA","52","2966","2966","#3d3846","psycho","NA","0","undefined","undefined","0","right","0","0","0","0","0","0","0","45","NA","0","45","0","0","NA","NA","NA","0","NA","NA","NA","NA","NA","0","NA","45","0","45","0","0","0","0","45","0","0","0","NA","Fri Oct 27 16:23:28 2023","20","The main experiment item","yes","CogPsy_Assignment_With_Instruction.osexp","/Users/andrasjoos/Documents/AI Masters/Period 1/Cognitive Psychology/Research project","no","mono","no","18","no","white","no","Student","yes","768","/Users/andrasjoos/Documents/AI Masters/Period 1/Cognitive Psychology/Research project/subject-8.csv","real","Melodramatic Milgram","4.0.5","genuine","left","right","NA","right","right","NA","left","495.651250006631","2831.9027919787914","NA","2251.3623329869006","8419.86475000158","NA","495.651250006631","NA","NA","2","real_20","1024","2","48000","-16","experiment","8","even","30798.01783399307","NA","16176.100375014357","41740.75991701102","NA","24059.589042008156","7317.5085420079995","212732.1258340089","NA","NA","213235.8954169904","47483.25683400617","7563.236999994842","NA","NA","NA","NA","NA","NA","NA","NA","NA","34963.91808401677","NA","213236.01120899548","49735.85954200826","212727.72487500333","NA","47474.001416994724","NA","34963.400417007506","213732.82754200045","NA","30797.30520900921","NA","NA","New experiment","24","136438.198331889","46","1024"
"53","NA","53","2915","2915","#3d3846","psycho","NA","1","undefined","undefined","1","left","0","0","0","0","0","0","0","46","NA","0","46","0","0","NA","NA","NA","0","NA","NA","NA","NA","NA","0","NA","46","0","46","0","0","0","0","46","0","0","0","NA","Fri Oct 27 16:23:28 2023","20","The main experiment item","yes","CogPsy_Assignment_With_Instruction.osexp","/Users/andrasjoos/Documents/AI Masters/Period 1/Cognitive Psychology/Research project","no","mono","no","18","no","white","no","Student","yes","768","/Users/andrasjoos/Documents/AI Masters/Period 1/Cognitive Psychology/Research project/subject-8.csv","fake","Melodramatic Milgram","4.0.5","BadInk","left","right","NA","right","right","NA","left","613.1556660111528","2831.9027919787914","NA","2251.3623329869006","8419.86475000158","NA","613.1556660111528","NA","NA","2","fake_20","1024","2","48000","-16","experiment","8","even","30798.01783399307","NA","16176.100375014357","41740.75991701102","NA","24059.589042008156","7317.5085420079995","213826.40462499694","NA","NA","214329.942167009","47483.25683400617","7563.236999994842","NA","NA","NA","NA","NA","NA","NA","NA","NA","34963.91808401677","NA","214330.0454590062","49735.85954200826","213822.2355839971","NA","47474.001416994724","NA","34963.400417007506","214944.43895900622","NA","30797.30520900921","NA","NA","New experiment","25","137051.35399790015","47","1024"
"54","NA","54","2869","2869","#3d3846","psycho","NA","1","undefined","undefined","1","right","0","0","0","0","0","0","0","47","NA","0","47","0","0","NA","NA","NA","0","NA","NA","NA","NA","NA","0","NA","47","0","47","0","0","0","0","47","0","0","0","NA","Fri Oct 27 16:23:28 2023","50","The main experiment item","yes","CogPsy_Assignment_With_Instruction.osexp","/Users/andrasjoos/Documents/AI Masters/Period 1/Cognitive Psychology/Research project","no","mono","no","18","no","white","no","Student","yes","768","/Users/andrasjoos/Documents/AI Masters/Period 1/Cognitive Psychology/Research project/subject-8.csv","real","Melodramatic Milgram","4.0.5","photo_2","right","right","NA","right","right","NA","right","701.7523329996038","2831.9027919787914","NA","2251.3623329869006","8419.86475000158","NA","701.7523329996038","NA","NA","2","real_50","1024","2","48000","-16","experiment","8","even","30798.01783399307","NA","16176.100375014357","41740.75991701102","NA","24059.589042008156","7317.5085420079995","215027.57283399114","NA","NA","215531.43537501455","47483.25683400617","7563.236999994842","NA","NA","NA","NA","NA","NA","NA","NA","NA","34963.91808401677","NA","215531.55004201108","49735.85954200826","215023.26837499277","NA","47474.001416994724","NA","34963.400417007506","216235.22995901294","NA","30797.30520900921","NA","NA","New experiment","26","137753.10633089975","48","1024"
"55","NA","55","2823","2823","#3d3846","psycho","NA","1","undefined","undefined","1","right","0","0","0","0","0","0","0","48","NA","0","48","0","0","NA","NA","NA","0","NA","NA","NA","NA","NA","0","NA","48","0","48","0","0","0","0","48","0","0","0","NA","Fri Oct 27 16:23:28 2023","20","The main experiment item","yes","CogPsy_Assignment_With_Instruction.osexp","/Users/andrasjoos/Documents/AI Masters/Period 1/Cognitive Psychology/Research project","no","mono","no","18","no","white","no","Student","yes","768","/Users/andrasjoos/Documents/AI Masters/Period 1/Cognitive Psychology/Research project/subject-8.csv","real","Melodramatic Milgram","4.0.5","photo","right","right","NA","right","right","NA","right","601.9067500019446","2831.9027919787914","NA","2251.3623329869006","8419.86475000158","NA","601.9067500019446","NA","NA","2","real_20","1024","2","48000","-16","experiment","8","even","30798.01783399307","NA","16176.100375014357","41740.75991701102","NA","24059.589042008156","7317.5085420079995","216350.67283399985","NA","NA","216854.80233401177","47483.25683400617","7563.236999994842","NA","NA","NA","NA","NA","NA","NA","NA","NA","34963.91808401677","NA","216854.9284999899","49735.85954200826","216345.93391700764","NA","47474.001416994724","NA","34963.400417007506","217459.2288339918","NA","30797.30520900921","NA","NA","New experiment","27","138355.0130809017","49","1024"
"54","NA","54","2777","2777","#3d3846","psycho","NA","0","undefined","undefined","0","left","0","0","0","0","0","0","0","49","NA","0","49","0","0","NA","NA","NA","0","NA","NA","NA","NA","NA","0","NA","49","0","49","0","0","0","0","49","0","0","0","NA","Fri Oct 27 16:23:28 2023","50","The main experiment item","yes","CogPsy_Assignment_With_Instruction.osexp","/Users/andrasjoos/Documents/AI Masters/Period 1/Cognitive Psychology/Research project","no","mono","no","18","no","white","no","Student","yes","768","/Users/andrasjoos/Documents/AI Masters/Period 1/Cognitive Psychology/Research project/subject-8.csv","fake","Melodramatic Milgram","4.0.5","PurpleDenomination","right","right","NA","right","right","NA","right","531.4464590046555","2831.9027919787914","NA","2251.3623329869006","8419.86475000158","NA","531.4464590046555","NA","NA","2","fake_2_50","1024","2","48000","-16","experiment","8","even","30798.01783399307","NA","16176.100375014357","41740.75991701102","NA","24059.589042008156","7317.5085420079995","217543.2734170172","NA","NA","218047.22462501377","47483.25683400617","7563.236999994842","NA","NA","NA","NA","NA","NA","NA","NA","NA","34963.91808401677","NA","218047.34237500816","49735.85954200826","217538.40866699466","NA","47474.001416994724","NA","34963.400417007506","218579.9818749947","NA","30797.30520900921","NA","NA","New experiment","27","138886.45953990635","50","1024"
"54","NA","54","2815","2815","#3d3846","psycho","NA","1","undefined","undefined","1","left","0","0","0","0","0","0","0","50","NA","0","50","0","0","NA","NA","NA","0","NA","NA","NA","NA","NA","0","NA","50","0","50","0","0","0","0","50","0","0","0","NA","Fri Oct 27 16:23:28 2023","20","The main experiment item","yes","CogPsy_Assignment_With_Instruction.osexp","/Users/andrasjoos/Documents/AI Masters/Period 1/Cognitive Psychology/Research project","no","mono","no","18","no","white","no","Student","yes","768","/Users/andrasjoos/Documents/AI Masters/Period 1/Cognitive Psychology/Research project/subject-8.csv","fake","Melodramatic Milgram","4.0.5","PurpleDenomination","left","right","NA","right","right","NA","left","4692.724333988735","2831.9027919787914","NA","2251.3623329869006","8419.86475000158","NA","4692.724333988735","NA","NA","2","fake_20","1024","2","48000","-16","experiment","8","even","30798.01783399307","NA","16176.100375014357","41740.75991701102","NA","24059.589042008156","7317.5085420079995","218671.47191701224","NA","NA","219175.92233399046","47483.25683400617","7563.236999994842","NA","NA","NA","NA","NA","NA","NA","NA","NA","34963.91808401677","NA","219176.05462501524","49735.85954200826","218667.18758401112","NA","47474.001416994724","NA","34963.400417007506","223870.94483399414","NA","30797.30520900921","NA","NA","New experiment","28","143579.1838738951","51","1024"
"55","NA","55","2775","2775","#3d3846","psycho","NA","1","undefined","undefined","1","left","0","0","0","0","0","0","0","51","NA","0","51","0","0","NA","NA","NA","0","NA","NA","NA","NA","NA","0","NA","51","0","51","0","0","0","0","51","0","0","0","NA","Fri Oct 27 16:23:28 2023","50","The main experiment item","yes","CogPsy_Assignment_With_Instruction.osexp","/Users/andrasjoos/Documents/AI Masters/Period 1/Cognitive Psychology/Research project","no","mono","no","18","no","white","no","Student","yes","768","/Users/andrasjoos/Documents/AI Masters/Period 1/Cognitive Psychology/Research project/subject-8.csv","fake","Melodramatic Milgram","4.0.5","bottom_left","left","right","NA","right","right","NA","left","735.6316660006996","2831.9027919787914","NA","2251.3623329869006","8419.86475000158","NA","735.6316660006996","NA","NA","2","fake_1_50","1024","2","48000","-16","experiment","8","even","30798.01783399307","NA","16176.100375014357","41740.75991701102","NA","24059.589042008156","7317.5085420079995","223992.955624999","NA","NA","224497.75120901177","47483.25683400617","7563.236999994842","NA","NA","NA","NA","NA","NA","NA","NA","NA","34963.91808401677","NA","224497.87595900125","49735.85954200826","223955.54112500395","NA","47474.001416994724","NA","34963.400417007506","225234.88033399917","NA","30797.30520900921","NA","NA","New experiment","29","144314.8155398958","52","1024"
"54","NA","54","2737","2737","#3d3846","psycho","NA","0","undefined","undefined","0","left","0","0","0","0","0","0","0","52","NA","0","52","0","0","NA","NA","NA","0","NA","NA","NA","NA","NA","0","NA","52","0","52","0","0","0","0","52","0","0","0","NA","Fri Oct 27 16:23:28 2023","50","The main experiment item","yes","CogPsy_Assignment_With_Instruction.osexp","/Users/andrasjoos/Documents/AI Masters/Period 1/Cognitive Psychology/Research project","no","mono","no","18","no","white","no","Student","yes","768","/Users/andrasjoos/Documents/AI Masters/Period 1/Cognitive Psychology/Research project/subject-8.csv","fake","Melodramatic Milgram","4.0.5","PurpleDenomination2","right","right","NA","right","right","NA","right","778.3628329925705","2831.9027919787914","NA","2251.3623329869006","8419.86475000158","NA","778.3628329925705","NA","NA","2","fake_2_50","1024","2","48000","-16","experiment","8","even","30798.01783399307","NA","16176.100375014357","41740.75991701102","NA","24059.589042008156","7317.5085420079995","225339.4988340151","NA","NA","225843.82016700692","47483.25683400617","7563.236999994842","NA","NA","NA","NA","NA","NA","NA","NA","NA","34963.91808401677","NA","225843.93904200988","49735.85954200826","225334.7142089915","NA","47474.001416994724","NA","34963.400417007506","226623.61224999768","NA","30797.30520900921","NA","NA","New experiment","29","145093.17837288836","53","1024"
"53","NA","53","2708","2708","#3d3846","psycho","NA","0","undefined","undefined","0","left","0","0","0","0","0","0","0","53","NA","0","53","0","0","NA","NA","NA","0","NA","NA","NA","NA","NA","0","NA","53","0","53","0","0","0","0","53","0","0","0","NA","Fri Oct 27 16:23:28 2023","50","The main experiment item","yes","CogPsy_Assignment_With_Instruction.osexp","/Users/andrasjoos/Documents/AI Masters/Period 1/Cognitive Psychology/Research project","no","mono","no","18","no","white","no","Student","yes","768","/Users/andrasjoos/Documents/AI Masters/Period 1/Cognitive Psychology/Research project/subject-8.csv","fake","Melodramatic Milgram","4.0.5","GreyDenomination","right","right","NA","right","right","NA","right","1152.736415999243","2831.9027919787914","NA","2251.3623329869006","8419.86475000158","NA","1152.736415999243","NA","NA","2","fake_2_50","1024","2","48000","-16","experiment","8","even","30798.01783399307","NA","16176.100375014357","41740.75991701102","NA","24059.589042008156","7317.5085420079995","226715.86787499837","NA","NA","227220.32616700744","47483.25683400617","7563.236999994842","NA","NA","NA","NA","NA","NA","NA","NA","NA","34963.91808401677","NA","227220.5108340131","49735.85954200826","226710.99279201007","NA","47474.001416994724","NA","34963.400417007506","228375.27962500462","NA","30797.30520900921","NA","NA","New experiment","29","146245.9147888876","54","1024"
"53","NA","53","2708","2708","#3d3846","psycho","NA","0","undefined","undefined","0","left","0","0","0","0","0","0","0","53","NA","0","53","0","0","NA","NA","NA","0","NA","NA","NA","NA","NA","0","NA","53","0","53","0","0","0","0","53","0","0","0","NA","Fri Oct 27 16:23:28 2023","50","The main experiment item","yes","CogPsy_Assignment_With_Instruction.osexp","/Users/andrasjoos/Documents/AI Masters/Period 1/Cognitive Psychology/Research project","no","mono","no","18","no","white","no","the quality of certain sections of the image","yes","768","/Users/andrasjoos/Documents/AI Masters/Period 1/Cognitive Psychology/Research project/subject-8.csv","fake","Melodramatic Milgram","4.0.5","GreyDenomination","the quality of certain sections of the image","right","NA","right","right","NA","right","1152.736415999243","2831.9027919787914","NA","2251.3623329869006","8419.86475000158","NA","1152.736415999243","NA","NA","2","fake_2_50","1024","2","48000","-16","experiment","8","even","30798.01783399307","NA","16176.100375014357","41740.75991701102","NA","24059.589042008156","7317.5085420079995","226715.86787499837","NA","NA","227220.32616700744","47483.25683400617","7563.236999994842","NA","NA","NA","283626.6353749961","NA","NA","NA","NA","NA","34963.91808401677","NA","227220.5108340131","49735.85954200826","226710.99279201007","NA","47474.001416994724","228420.78645899892","34963.400417007506","228375.27962500462","NA","30797.30520900921","NA","NA","New experiment","29","146245.9147888876","54","1024"
"53","NA","53","2708","2708","#3d3846","psycho","NA","0","undefined","undefined","0","left","0","0","0","0","0","0","0","53","NA","0","53","0","0","NA","NA","NA","0","NA","NA","NA","NA","NA","0","NA","53","0","53","0","0","0","0","53","0","0","0","NA","Fri Oct 27 16:23:28 2023","50","The main experiment item","yes","CogPsy_Assignment_With_Instruction.osexp","/Users/andrasjoos/Documents/AI Masters/Period 1/Cognitive Psychology/Research project","no","mono","no","18","no","white","no","Ok","yes","768","/Users/andrasjoos/Documents/AI Masters/Period 1/Cognitive Psychology/Research project/subject-8.csv","fake","Melodramatic Milgram","4.0.5","GreyDenomination","UV hologram;Watermark;Ink quality","right","NA","right","right","NA","right","1152.736415999243","2831.9027919787914","NA","2251.3623329869006","8419.86475000158","NA","1152.736415999243","NA","NA","2","fake_2_50","1024","2","48000","-16","experiment","8","even","30798.01783399307","NA","16176.100375014357","41740.75991701102","NA","24059.589042008156","7317.5085420079995","226715.86787499837","NA","NA","227220.32616700744","47483.25683400617","7563.236999994842","NA","NA","NA","283626.6353749961","NA","NA","NA","NA","NA","34963.91808401677","NA","227220.5108340131","49735.85954200826","226710.99279201007","NA","47474.001416994724","228420.78645899892","34963.400417007506","228375.27962500462","NA","30797.30520900921","292781.0373750108","NA","New experiment","29","146245.9147888876","54","1024"
